submission_id,question,startDate,experiment_id,listening_foreign,optionRight,writing_native,id,listening_time,reading_native,speaking_time,button_under,reading_time,type,reading_foreign,endTime,optionLeft,foreign_language,age,response,comments,education,QUD,listening_native,speaking_native,RT,speaking_foreign,native_language,language,gender,trial_number,startTime,timeSpent,foreign_dominance,learning_time,writing_foreign,trial_name
590,<b>Klang / Geräusch</b> von: Auf die Straße fallender Regen,Sat Jul 13 2019 02:53:38 GMT+0200 (CEST),72,6,eine perfekt klare Vorstellung,7,1,4,6,2,Ich verstehe den Satz nicht nicht.,5,auditory,7,1562979717760,keine Vorstellung,English,17,6,,other,"Stellen Sie sich den folgenden <b>Klang</b> bzw. das folgende <b>Geräusch</b> vor und betrachten Sie sorgfältig die entstehende <b>auditive Vorstellung</b>.<br />Bewerten Sie, wie lebhaft Sie sich Folgendes vorstellen können:",5,5,20117,5,German,German,weiblich,1,1562979218888,8.314533333333333,no,5,4,ratingScaleTrial_ger
590,"<b>Gefühl</b>: das Sie hatten, wenn die Schulklingel läutete",Sat Jul 13 2019 02:53:38 GMT+0200 (CEST),72,6,eine perfekt klare Vorstellung,7,6,4,6,2,Ich verstehe den Satz nicht nicht.,5,organic,7,1562979717760,keine Vorstellung,English,17,7,,other,"Stellen Sie sich das folgende <b>Gefühl</b> vor und begutachten Sie genau die <b>Vorstellung, welche in Ihre Gedanken dazu entsteht</b>.<br />Bewerten Sie, wie lebhaft Sie sich Folgendes vorstellen können:",5,5,10458,5,German,German,weiblich,2,1562979218888,8.314533333333333,no,5,4,ratingScaleTrial_ger
590,<b>Geschmack</b> von: Erdbeeren,Sat Jul 13 2019 02:53:38 GMT+0200 (CEST),72,6,eine perfekt klare Vorstellung,7,4,4,6,2,Ich verstehe den Satz nicht nicht.,5,gustatory,7,1562979717760,keine Vorstellung,English,17,6,,other,"Stellen Sie sich den folgenden <b>Geschmack</b> vor und betrachten Sie sorgfältig die entstehende <b>geschmackliche Vorstellung</b>.<br />Bewerten Sie, wie lebhaft Sie sich Folgendes vorstellen können:",5,5,16989,5,German,German,weiblich,3,1562979218888,8.314533333333333,no,5,4,ratingScaleTrial_ger
590,<b>Gefühl</b>: Das Kitzeln einer Fliege auf der Haut,Sat Jul 13 2019 02:53:38 GMT+0200 (CEST),72,6,eine perfekt klare Vorstellung,7,2,4,6,2,Ich verstehe den Satz nicht nicht.,5,tactile,7,1562979717760,keine Vorstellung,English,17,3,,other,"Stellen Sie sich das <b>Gefühl</b> oder die <b>Berührung</b> des Folgenden vor und betrachten Sie sorgfältig die entstehende <b>taktile (fühlbare) Vorstellung</b>.<br />Bewerten Sie, wie lebhaft Sie sich Folgendes vorstellen können:",5,5,4524,5,German,German,weiblich,4,1562979218888,8.314533333333333,no,5,4,ratingScaleTrial_ger
590,<b>Geruch</b> von: frisch gebrühtem Kaffee,Sat Jul 13 2019 02:53:38 GMT+0200 (CEST),72,6,eine perfekt klare Vorstellung,7,5,4,6,2,Ich verstehe den Satz nicht nicht.,5,olfactory,7,1562979717760,keine Vorstellung,English,17,1,,other,"Stellen Sie sich den folgenden <b>Geruch</b> vor und betrachten Sie sorgfältig die entstehende <b>Geruchsvorstellung</b>.<br />Bewerten Sie, wie lebhaft Sie sich Folgendes vorstellen können:",5,5,3766,5,German,German,weiblich,5,1562979218888,8.314533333333333,no,5,4,ratingScaleTrial_ger
590,<b>Bewegung</b>: Das Hinsetzen auf einen Stuhl,Sat Jul 13 2019 02:53:38 GMT+0200 (CEST),72,6,eine perfekt klare Vorstellung,7,3,4,6,2,Ich verstehe den Satz nicht nicht.,5,motor,7,1562979717760,keine Vorstellung,English,17,7,,other,"Stellen Sie sich vor, das Folgende <b>zu tun</b> und betrachten Sie sorgfältig die entstehende Vorstellung, wie sich Ihre <b>Körperteile bewegen und anfühlen</b>, um das Beschriebene <b>auszuführen</b>.<br />Bewerten Sie, wie lebhaft Sie sich Folgendes vorstellen können:",5,5,13747,5,German,German,weiblich,6,1562979218888,8.314533333333333,no,5,4,ratingScaleTrial_ger
590,"<b>Bild</b>: Eines Balls, der auf und ab hüpft",Sat Jul 13 2019 02:53:38 GMT+0200 (CEST),72,6,eine perfekt klare Vorstellung,7,0,4,6,2,Ich verstehe den Satz nicht nicht.,5,visual,7,1562979717760,keine Vorstellung,English,17,7,,other,"Stellen Sie sich das folgende <b>Bild</b> vor und betrachten Sie sorgfältig die entstehende <b>visuelle Vorstellung</b>.<br />Bewerten Sie, wie lebhaft Sie sich Folgendes vorstellen können:",5,5,11568,5,German,German,weiblich,7,1562979218888,8.314533333333333,no,5,4,ratingScaleTrial_ger
590,<b>Klang</b>: Des Miauens einer Katze,Sat Jul 13 2019 02:53:38 GMT+0200 (CEST),72,6,eine perfekt klare Vorstellung,7,14,4,6,2,Ich verstehe den Satz nicht nicht.,5,auditory,7,1562979717760,keine Vorstellung,English,17,5,,other,"Stellen Sie sich den folgenden <b>Klang</b> vor und betrachten Sie sorgfältig die entstehende <b>auditive Impression</b>.<br />Bewerten Sie, wie lebhaft Sie sich Folgendes vorstellen können:",5,5,10405,5,German,German,weiblich,1,1562979218888,8.314533333333333,no,5,4,ratingScaleTask
590,<b>Klang</b>: des Klatschens von Händen beim Applaudieren,Sat Jul 13 2019 02:53:38 GMT+0200 (CEST),72,6,eine perfekt klare Vorstellung,7,16,4,6,2,Ich verstehe den Satz nicht nicht.,5,auditory,7,1562979717760,keine Vorstellung,English,17,7,,other,"Stellen Sie sich den folgenden <b>Klang</b> vor und betrachten Sie sorgfältig die entstehende <b>auditive Impression</b>.<br />Bewerten Sie, wie lebhaft Sie sich Folgendes vorstellen können:",5,5,3085,5,German,German,weiblich,2,1562979218888,8.314533333333333,no,5,4,ratingScaleTask
590,"<b>Bild</b> von: Seinem/Ihrem Gang, wie er/sie läuft, wie lang seine/ihre Schritte sind, etc.",Sat Jul 13 2019 02:53:38 GMT+0200 (CEST),72,6,eine perfekt klare Vorstellung,7,9,4,6,2,Ich verstehe den Satz nicht nicht.,5,visual,7,1562979717760,keine Vorstellung,English,17,7,,other,"Denken Sie an eine*n Verwandte*n oder eine*n Freund*in, den/die Sie regelmäßig <b>sehen</b>, und betrachten Sie sorgfältig die entstehende <b>visuelle Vorstellung</b>.<br />Bewerten Sie, wie lebhaft Sie sich Folgendes vorstellen können:",5,5,19556,5,German,German,weiblich,3,1562979218888,8.314533333333333,no,5,4,ratingScaleTask
590,<b>Gefühl</b> von: Hunger,Sat Jul 13 2019 02:53:38 GMT+0200 (CEST),72,6,eine perfekt klare Vorstellung,7,38,4,6,2,Ich verstehe den Satz nicht nicht.,5,organic,7,1562979717760,keine Vorstellung,English,17,5,,other,"Stellen Sie sich das folgende <b>Gefühl</b> vor und begutachten Sie die genaue <b>Impression dieses Gefühles</b>, welches in Ihre Gedanken dazu kommt.<br />Bewerten Sie, wie lebhaft Sie sich das Folgende vorstellen können:",5,5,7477,5,German,German,weiblich,4,1562979218888,8.314533333333333,no,5,4,ratingScaleTask
590,"<b>Geruch</b> von: Rindfleisch, das angebraten wird",Sat Jul 13 2019 02:53:38 GMT+0200 (CEST),72,6,eine perfekt klare Vorstellung,7,34,4,6,2,Ich verstehe den Satz nicht nicht.,5,olfactory,7,1562979717760,keine Vorstellung,English,17,4,,other,"Stellen Sie sich den folgenden <b>Geruch</b> vor und betrachten Sie sorgfältig die entstehende <b>Geruchsvorstellung</b>.<br />Bewerten Sie, wie lebhaft Sie sich den Folgenden vorstellen können",5,5,6914,5,German,German,weiblich,5,1562979218888,8.314533333333333,no,5,4,ratingScaleTask
590,<b>Geschmack</b> von: Salz,Sat Jul 13 2019 02:53:38 GMT+0200 (CEST),72,6,eine perfekt klare Vorstellung,7,27,4,6,2,Ich verstehe den Satz nicht nicht.,5,gustatory,7,1562979717760,keine Vorstellung,English,17,5,,other,"Stellen Sie sich den folgenden <b>Geschmack</b> vor und betrachten Sie sorgfältig die entstehende <b>geschmackliche Vorstellung</b>.<br />Bewerten Sie, wie lebhaft Sie sich den Folgenden vorstellen können:",5,5,4821,5,German,German,weiblich,6,1562979218888,8.314533333333333,no,5,4,ratingScaleTask
590,<b>Geschmack</b> von: (weißem) Zucker,Sat Jul 13 2019 02:53:38 GMT+0200 (CEST),72,6,eine perfekt klare Vorstellung,7,28,4,6,2,Ich verstehe den Satz nicht nicht.,5,gustatory,7,1562979717760,keine Vorstellung,English,17,6,,other,"Stellen Sie sich den folgenden <b>Geschmack</b> vor und betrachten Sie sorgfältig die entstehende <b>geschmackliche Vorstellung</b>.<br />Bewerten Sie, wie lebhaft Sie sich den Folgenden vorstellen können:",5,5,3124,5,German,German,weiblich,7,1562979218888,8.314533333333333,no,5,4,ratingScaleTask
590,"<b>Aussehen</b> von seiner/ihrer: Genauen Kontur des Gesichtes, Kopf, Schultern und Körper",Sat Jul 13 2019 02:53:38 GMT+0200 (CEST),72,6,eine perfekt klare Vorstellung,7,7,4,6,2,Ich verstehe den Satz nicht nicht.,5,visual,7,1562979717760,keine Vorstellung,English,17,2,,other,"Denken Sie an eine*n Verwandte*n oder eine*n Freund*in, den/die Sie regelmäßig <b>sehen</b>, und betrachten Sie sorgfältig die entstehende <b>visuelle Vorstellung</b>.<br />Bewerten Sie, wie lebhaft Sie sich Folgendes vorstellen können:",5,5,10863,5,German,German,weiblich,8,1562979218888,8.314533333333333,no,5,4,ratingScaleTask
590,<b>Geschmack</b> von: Orangen,Sat Jul 13 2019 02:53:38 GMT+0200 (CEST),72,6,eine perfekt klare Vorstellung,7,29,4,6,2,Ich verstehe den Satz nicht nicht.,5,gustatory,7,1562979717760,keine Vorstellung,English,17,3,,other,"Stellen Sie sich den folgenden <b>Geschmack</b> vor und betrachten Sie sorgfältig die entstehende <b>geschmackliche Vorstellung</b>.<br />Bewerten Sie, wie lebhaft Sie sich den Folgenden vorstellen können:",5,5,6759,5,German,German,weiblich,9,1562979218888,8.314533333333333,no,5,4,ratingScaleTask
590,"<b>Bild</b> von seinen/ihren: Charakteristischen Haltungen von Kopf, Körper, etc.",Sat Jul 13 2019 02:53:38 GMT+0200 (CEST),72,6,eine perfekt klare Vorstellung,7,8,4,6,2,Ich verstehe den Satz nicht nicht.,5,visual,7,1562979717760,keine Vorstellung,English,17,2,,other,"Denken Sie an eine*n Verwandte*n oder eine*n Freund*in, den/die Sie regelmäßig <b>sehen</b>, und betrachten Sie sorgfältig die entstehende <b>visuelle Vorstellung</b>.<br />Bewerten Sie, wie lebhaft Sie sich Folgendes vorstellen können:",5,5,9968,5,German,German,weiblich,10,1562979218888,8.314533333333333,no,5,4,ratingScaleTask
590,<b>Gefühl</b> von: Ermüdung,Sat Jul 13 2019 02:53:38 GMT+0200 (CEST),72,6,eine perfekt klare Vorstellung,7,37,4,6,2,Ich verstehe den Satz nicht nicht.,5,organic,7,1562979717760,keine Vorstellung,English,17,7,,other,"Stellen Sie sich das folgende <b>Gefühl</b> vor und begutachten Sie die genaue <b>Impression dieses Gefühles</b>, welches in Ihre Gedanken dazu kommt.<br />Bewerten Sie, wie lebhaft Sie sich das Folgende vorstellen können:",5,5,4206,5,German,German,weiblich,11,1562979218888,8.314533333333333,no,5,4,ratingScaleTask
590,"<b>Bild</b> von: Der Sonne, wie sie am Horizont untergeht",Sat Jul 13 2019 02:53:38 GMT+0200 (CEST),72,6,eine perfekt klare Vorstellung,7,11,4,6,2,Ich verstehe den Satz nicht nicht.,5,visual,7,1562979717760,keine Vorstellung,English,17,4,,other,"Stellen Sie sich das folgende <b>Bild</b> vor und betrachten Sie sorgfältig die entstehende <b>visuelle Vorstellung</b>.<br />Bewerten Sie, wie lebhaft Sie sich Folgendes vorstellen können:",5,5,7297,5,German,German,weiblich,12,1562979218888,8.314533333333333,no,5,4,ratingScaleTask
590,"<b>Bild</b> von: Den verschiedenen Farben, mit denen sich die Person häufig kleidet",Sat Jul 13 2019 02:53:38 GMT+0200 (CEST),72,6,eine perfekt klare Vorstellung,7,10,4,6,2,Ich verstehe den Satz nicht nicht.,5,visual,7,1562979717760,keine Vorstellung,English,17,2,,other,"Denken Sie an eine*n Verwandte*n oder eine*n Freund*in, den/die Sie regelmäßig <b>sehen</b>, und betrachten Sie sorgfältig die entstehende <b>visuelle Vorstellung</b>.<br />Bewerten Sie, wie lebhaft Sie sich Folgendes vorstellen können:",5,5,10687,5,German,German,weiblich,13,1562979218888,8.314533333333333,no,5,4,ratingScaleTask
590,<b>Gefühl</b> von: Leinen,Sat Jul 13 2019 02:53:38 GMT+0200 (CEST),72,6,eine perfekt klare Vorstellung,7,18,4,6,2,Ich verstehe den Satz nicht nicht.,5,tactile,7,1562979717760,keine Vorstellung,English,17,0,,other,"Stellen Sie sich das <b>Gefühl</b> des Folgenden <b>auf der Haut</b> vor und betrachten Sie sorgfältig die entstehende <b>taktile (fühlbare) Vorstellung</b>.<br />Bewerten Sie, wie lebhaft Sie sich Folgendes vorstellen können:",5,5,3982,5,German,German,weiblich,14,1562979218888,8.314533333333333,no,5,4,ratingScaleTask
590,<b>Geschmack</b> von: Marmelade,Sat Jul 13 2019 02:53:38 GMT+0200 (CEST),72,6,eine perfekt klare Vorstellung,7,30,4,6,2,Ich verstehe den Satz nicht nicht.,5,gustatory,7,1562979717760,keine Vorstellung,English,17,3,,other,"Stellen Sie sich den folgenden <b>Geschmack</b> vor und betrachten Sie sorgfältig die entstehende <b>geschmackliche Vorstellung</b>.<br />Bewerten Sie, wie lebhaft Sie sich den Folgenden vorstellen können:",5,5,3674,5,German,German,weiblich,15,1562979218888,8.314533333333333,no,5,4,ratingScaleTask
590,<b>Geräusch</b>: Des Pfeifens einer Lokomotive,Sat Jul 13 2019 02:53:38 GMT+0200 (CEST),72,6,eine perfekt klare Vorstellung,7,12,4,6,2,Ich verstehe den Satz nicht nicht.,5,auditory,7,1562979717760,keine Vorstellung,English,17,1,,other,"Stellen Sie sich das folgende <b>Geräusch</b> vor und betrachten Sie sorgfältig die entstehende <b>auditive Impression</b>.<br />Bewerten Sie, wie lebhaft Sie sich Folgendes Geräusch vorstellen können:",5,5,3277,5,German,German,weiblich,16,1562979218888,8.314533333333333,no,5,4,ratingScaleTask
590,<b>Geruch</b> von: Frischer Farbe,Sat Jul 13 2019 02:53:38 GMT+0200 (CEST),72,6,eine perfekt klare Vorstellung,7,35,4,6,2,Ich verstehe den Satz nicht nicht.,5,olfactory,7,1562979717760,keine Vorstellung,English,17,7,,other,"Stellen Sie sich den folgenden <b>Geruch</b> vor und betrachten Sie sorgfältig die entstehende <b>Geruchsvorstellung</b>.<br />Bewerten Sie, wie lebhaft Sie sich den Folgenden vorstellen können:",5,5,3607,5,German,German,weiblich,17,1562979218888,8.314533333333333,no,5,4,ratingScaleTask
590,<b>Geruch</b> von: Einem schlecht belüftetem Raum,Sat Jul 13 2019 02:53:38 GMT+0200 (CEST),72,6,eine perfekt klare Vorstellung,7,32,4,6,2,Ich verstehe den Satz nicht nicht.,5,olfactory,7,1562979717760,keine Vorstellung,English,17,5,,other,"Stellen Sie sich den folgenden <b>Geruch</b> vor und betrachten Sie sorgfältig die entstehende <b>geschmackliche Vorstellung</b>.<br />Bewerten Sie, wie lebhaft Sie sich den Folgenden vorstellen können:",5,5,4184,5,German,German,weiblich,18,1562979218888,8.314533333333333,no,5,4,ratingScaleTask
590,<b>Gefühl</b> von: Fell,Sat Jul 13 2019 02:53:38 GMT+0200 (CEST),72,6,eine perfekt klare Vorstellung,7,19,4,6,2,Ich verstehe den Satz nicht nicht.,5,tactile,7,1562979717760,keine Vorstellung,English,17,7,,other,"Stellen Sie sich das <b>Gefühl</b> des Folgenden <b>auf der Haut</b> vor und betrachten Sie sorgfältig die entstehende <b>taktile (fühlbare) Vorstellung</b>.<br />Bewerten Sie, wie lebhaft Sie sich Folgendes vorstellen können:",5,5,11511,5,German,German,weiblich,19,1562979218888,8.314533333333333,no,5,4,ratingScaleTask
590,<b>Gefühl</b> von: Der Wärme eines lauwarmen Bades,Sat Jul 13 2019 02:53:38 GMT+0200 (CEST),72,6,eine perfekt klare Vorstellung,7,21,4,6,2,Ich verstehe den Satz nicht nicht.,5,tactile,7,1562979717760,keine Vorstellung,English,17,0,,other,"Stellen Sie sich das <b>Gefühl</b> des Folgenden <b>auf der Haut</b> vor und betrachten Sie sorgfältig die entstehende <b>taktile (fühlbare) Vorstellung</b>.<br />Bewerten Sie, wie lebhaft Sie sich Folgendes vorstellen können:",5,5,5394,5,German,German,weiblich,20,1562979218888,8.314533333333333,no,5,4,ratingScaleTask
590,<b>Klang</b> von: Entweichendem Dampf,Sat Jul 13 2019 02:53:38 GMT+0200 (CEST),72,6,eine perfekt klare Vorstellung,7,15,4,6,2,Ich verstehe den Satz nicht nicht.,5,auditory,7,1562979717760,keine Vorstellung,English,17,6,,other,"Stellen Sie sich den folgenden <b>Klang</b> vor und betrachten Sie sorgfältig die entstehende <b>auditive Impression</b>.<br />Bewerten Sie, wie lebhaft Sie sich Folgendes vorstellen können:",5,5,7276,5,German,German,weiblich,21,1562979218888,8.314533333333333,no,5,4,ratingScaleTask
590,<b>Gefühl</b>: Eines schmerzend trockenen Halses,Sat Jul 13 2019 02:53:38 GMT+0200 (CEST),72,6,eine perfekt klare Vorstellung,7,39,4,6,2,Ich verstehe den Satz nicht nicht.,5,organic,7,1562979717760,keine Vorstellung,English,17,7,,other,"Stellen Sie sich das folgende <b>Gefühl</b> vor und begutachten Sie die genaue <b>Impression dieses Gefühles</b>, welches in Ihre Gedanken dazu kommt.<br />Bewerten Sie, wie lebhaft Sie sich das Folgende vorstellen können:",5,5,5116,5,German,German,weiblich,22,1562979218888,8.314533333333333,no,5,4,ratingScaleTask
590,<b>Geruch</b> von: Neuem Leder,Sat Jul 13 2019 02:53:38 GMT+0200 (CEST),72,6,eine perfekt klare Vorstellung,7,36,4,6,2,Ich verstehe den Satz nicht nicht.,5,olfactory,7,1562979717760,keine Vorstellung,English,17,1,,other,"Stellen Sie sich den folgenden <b>Geruch</b> vor und betrachten Sie sorgfältig die entstehende <b>Geruchsvorstellung</b>.<br />Bewerten Sie, wie lebhaft Sie sich den Folgenden vorstellen können:",5,5,3192,5,German,German,weiblich,23,1562979218888,8.314533333333333,no,5,4,ratingScaleTask
590,<b>Klang</b>: Eines hupenden Autos,Sat Jul 13 2019 02:53:38 GMT+0200 (CEST),72,6,eine perfekt klare Vorstellung,7,13,4,6,2,Ich verstehe den Satz nicht nicht.,5,auditory,7,1562979717760,keine Vorstellung,English,17,7,,other,"Stellen Sie sich den folgenden <b>Klang</b> vor und betrachten Sie sorgfältig die entstehende <b>auditive Impression</b>.<br />Bewerten Sie, wie lebhaft Sie sich Folgendes vorstellen können:",5,5,3742,5,German,German,weiblich,24,1562979218888,8.314533333333333,no,5,4,ratingScaleTask
590,<b>Gefühl</b> von: Schläfrigkeit,Sat Jul 13 2019 02:53:38 GMT+0200 (CEST),72,6,eine perfekt klare Vorstellung,7,40,4,6,2,Ich verstehe den Satz nicht nicht.,5,organic,7,1562979717760,keine Vorstellung,English,17,4,,other,"Stellen Sie sich das folgende <b>Gefühl</b> vor und begutachten Sie die genaue <b>Impression dieses Gefühles</b>, welches in Ihre Gedanken dazu kommt.<br />Bewerten Sie, wie lebhaft Sie sich das Folgende vorstellen können:",5,5,3849,5,German,German,weiblich,25,1562979218888,8.314533333333333,no,5,4,ratingScaleTask
590,<b>Geruch</b>: bei dem Kochen von Kohl.,Sat Jul 13 2019 02:53:38 GMT+0200 (CEST),72,6,eine perfekt klare Vorstellung,7,33,4,6,2,Ich verstehe den Satz nicht nicht.,5,olfactory,7,1562979717760,keine Vorstellung,English,17,1,,other,"Stellen Sie sich den folgenden <b>Geruch</b> vor und betrachten Sie sorgfältig die entstehende <b>Geruchsvorstellung</b>.<br />Bewerten Sie, wie lebhaft Sie sich den Folgenden vorstellen können:",5,5,3533,5,German,German,weiblich,26,1562979218888,8.314533333333333,no,5,4,ratingScaleTask
590,"<b>Gefühl</b> von: Das Unwohlsein, nachdem man zu viel gegessen hat.",Sat Jul 13 2019 02:53:38 GMT+0200 (CEST),72,6,eine perfekt klare Vorstellung,7,41,4,6,2,Ich verstehe den Satz nicht nicht.,5,organic,7,1562979717760,keine Vorstellung,English,17,7,,other,"Stellen Sie sich das folgende <b>Gefühl</b> vor und begutachten Sie die genaue <b>Impression dieses Gefühles</b>, welches in Ihre Gedanken dazu kommt.<br />Bewerten Sie, wie lebhaft Sie sich das Folgende vorstellen können:",5,5,3360,5,German,German,weiblich,27,1562979218888,8.314533333333333,no,5,4,ratingScaleTask
590,<b>Gefühl</b> vom: Piksen einer Stecknadel,Sat Jul 13 2019 02:53:38 GMT+0200 (CEST),72,6,eine perfekt klare Vorstellung,7,20,4,6,2,Ich verstehe den Satz nicht nicht.,5,tactile,7,1562979717760,keine Vorstellung,English,17,1,,other,"Stellen Sie sich das <b>Gefühl</b> des Folgenden <b>auf der Haut</b> vor und betrachten Sie sorgfältig die entstehende <b>taktile (fühlbare) Vorstellung</b>.<br />Bewerten Sie, wie lebhaft Sie sich Folgendes vorstellen können:",5,5,9859,5,German,German,weiblich,28,1562979218888,8.314533333333333,no,5,4,ratingScaleTask
590,<b>Geschmack</b> von: Deiner Lieblings-Suppe,Sat Jul 13 2019 02:53:38 GMT+0200 (CEST),72,6,eine perfekt klare Vorstellung,7,31,4,6,2,Ich verstehe den Satz nicht nicht.,5,gustatory,7,1562979717760,keine Vorstellung,English,17,7,,other,"Stellen Sie sich den folgenden <b>Geschmack</b> vor und betrachten Sie sorgfältig die entstehende <b>geschmackliche Vorstellung</b>.<br />Bewerten Sie, wie lebhaft Sie sich den Folgenden vorstellen können:",5,5,5210,5,German,German,weiblich,29,1562979218888,8.314533333333333,no,5,4,ratingScaleTask
590,<b>Bewegung</b>: Zu einem hohen Regal hoch greifen,Sat Jul 13 2019 02:53:38 GMT+0200 (CEST),72,6,eine perfekt klare Vorstellung,7,25,4,6,2,Ich verstehe den Satz nicht nicht.,5,motor,7,1562979717760,keine Vorstellung,English,17,7,,other,"Stellen Sie sich vor, das Folgende <b>zu tun</b> und betrachten Sie sorgfältig die entstehende Vorstellung, wie sich Ihre <b>Körperteile bewegen und anfühlen</b>, um das Beschriebene <b>auszuführen</b>.<br />Bewerten Sie, wie lebhaft Sie sich Folgendes vorstellen können:",5,5,4374,5,German,German,weiblich,30,1562979218888,8.314533333333333,no,5,4,ratingScaleTask
590,<b>Gefühl</b> von: Sand,Sat Jul 13 2019 02:53:38 GMT+0200 (CEST),72,6,eine perfekt klare Vorstellung,7,17,4,6,2,Ich verstehe den Satz nicht nicht.,5,tactile,7,1562979717760,keine Vorstellung,English,17,7,,other,"Stellen Sie sich das <b>Gefühl</b> des Folgenden <b>auf der Haut</b> vor und betrachten Sie sorgfältig die entstehende <b>taktile (fühlbare) Vorstellung</b>.<br />Bewerten Sie, wie lebhaft Sie sich Folgendes vorstellen können:",5,5,2483,5,German,German,weiblich,31,1562979218888,8.314533333333333,no,5,4,ratingScaleTask
590,<b>Bewegung</b>: Einen Kreis auf ein Blatt Papier malen,Sat Jul 13 2019 02:53:38 GMT+0200 (CEST),72,6,eine perfekt klare Vorstellung,7,24,4,6,2,Ich verstehe den Satz nicht nicht.,5,motor,7,1562979717760,keine Vorstellung,English,17,6,,other,"Stellen Sie sich vor, das Folgende <b>zu tun</b> und betrachten Sie sorgfältig die entstehende Vorstellung, wie sich Ihre <b>Körperteile bewegen und anfühlen</b>, um das Beschriebene <b>auszuführen</b>.<br />Bewerten Sie, wie lebhaft Sie sich Folgendes vorstellen können:",5,5,8111,5,German,German,weiblich,32,1562979218888,8.314533333333333,no,5,4,ratingScaleTask
590,<b>Bewegung</b>: Ein Objekt aus dem Weg treten,Sat Jul 13 2019 02:53:38 GMT+0200 (CEST),72,6,eine perfekt klare Vorstellung,7,26,4,6,2,Ich verstehe den Satz nicht nicht.,5,motor,7,1562979717760,keine Vorstellung,English,17,6,,other,"Stellen Sie sich vor, das Folgende <b>zu tun</b> und betrachten Sie sorgfältig die entstehende Vorstellung, wie sich Ihre <b>Körperteile bewegen und anfühlen</b>, um das Beschriebene <b>auszuführen</b>.<br />Bewerten Sie, wie lebhaft Sie sich Folgendes vorstellen können:",5,5,3899,5,German,German,weiblich,33,1562979218888,8.314533333333333,no,5,4,ratingScaleTask
590,<b>Bewegung</b>: Über einen (kleinen) Bach springen,Sat Jul 13 2019 02:53:38 GMT+0200 (CEST),72,6,eine perfekt klare Vorstellung,7,23,4,6,2,Ich verstehe den Satz nicht nicht.,5,motor,7,1562979717760,keine Vorstellung,English,17,5,,other,"Stellen Sie sich, vor das Folgende <b>zu tun</b> und betrachten Sie sorgfältig die entstehende Vorstellung, wie sich <b>Ihre Körperteile bewegen und anfühlen</b>, um das Beschriebene <b>auszuführen</b>.<br />Bewerten Sie, wie lebhaft Sie sich Folgendes vorstellen können:",5,5,3160,5,German,German,weiblich,34,1562979218888,8.314533333333333,no,5,4,ratingScaleTask
590,<b>Bewegung</b>: Eine Treppe hoch rennen,Sat Jul 13 2019 02:53:38 GMT+0200 (CEST),72,6,eine perfekt klare Vorstellung,7,22,4,6,2,Ich verstehe den Satz nicht nicht.,5,motor,7,1562979717760,keine Vorstellung,English,17,7,,other,"Stellen Sie sich vor, das Folgende <b>zu tun</b> und betrachten Sie sorgfältig die entstehende Vorstellung, wie sich Ihre <b>Körperteile bewegen und anfühlen</b>, um das Beschriebene <b>auszuführen</b>.<br />Bewerten Sie, wie lebhaft Sie sich Folgendes vorstellen können:",5,5,6302,5,German,German,weiblich,35,1562979218888,8.314533333333333,no,5,4,ratingScaleTask
572,<b>Geruch</b> von: frisch gebrühtem Kaffee,Fri Jul 12 2019 18:13:20 GMT+0200 (CEST),72,6,eine perfekt klare Vorstellung,6,5,5,6,5,Ich verstehe den Satz nicht nicht.,3,olfactory,6,1562948541030,keine Vorstellung,Both,19,3,,Abitur,"Stellen Sie sich den folgenden <b>Geruch</b> vor und betrachten Sie sorgfältig die entstehende <b>Geruchsvorstellung</b>.<br />Bewerten Sie, wie lebhaft Sie sich Folgendes vorstellen können:",5,6,5702,6,None,German,weiblich,1,1562948000230,9.013333333333334,yes,5,6,ratingScaleTrial_ger
572,<b>Klang / Geräusch</b> von: Auf die Straße fallender Regen,Fri Jul 12 2019 18:13:20 GMT+0200 (CEST),72,6,eine perfekt klare Vorstellung,6,1,5,6,5,Ich verstehe den Satz nicht nicht.,3,auditory,6,1562948541030,keine Vorstellung,Both,19,5,,Abitur,"Stellen Sie sich den folgenden <b>Klang</b> bzw. das folgende <b>Geräusch</b> vor und betrachten Sie sorgfältig die entstehende <b>auditive Vorstellung</b>.<br />Bewerten Sie, wie lebhaft Sie sich Folgendes vorstellen können:",5,6,4916,6,None,German,weiblich,2,1562948000230,9.013333333333334,yes,5,6,ratingScaleTrial_ger
572,"<b>Gefühl</b>: das Sie hatten, wenn die Schulklingel läutete",Fri Jul 12 2019 18:13:20 GMT+0200 (CEST),72,6,eine perfekt klare Vorstellung,6,6,5,6,5,Ich verstehe den Satz nicht nicht.,3,organic,6,1562948541030,keine Vorstellung,Both,19,1,,Abitur,"Stellen Sie sich das folgende <b>Gefühl</b> vor und begutachten Sie genau die <b>Vorstellung, welche in Ihre Gedanken dazu entsteht</b>.<br />Bewerten Sie, wie lebhaft Sie sich Folgendes vorstellen können:",5,6,6890,6,None,German,weiblich,3,1562948000230,9.013333333333334,yes,5,6,ratingScaleTrial_ger
572,"<b>Bild</b>: Eines Balls, der auf und ab hüpft",Fri Jul 12 2019 18:13:20 GMT+0200 (CEST),72,6,eine perfekt klare Vorstellung,6,0,5,6,5,Ich verstehe den Satz nicht nicht.,3,visual,6,1562948541030,keine Vorstellung,Both,19,6,,Abitur,"Stellen Sie sich das folgende <b>Bild</b> vor und betrachten Sie sorgfältig die entstehende <b>visuelle Vorstellung</b>.<br />Bewerten Sie, wie lebhaft Sie sich Folgendes vorstellen können:",5,6,5408,6,None,German,weiblich,4,1562948000230,9.013333333333334,yes,5,6,ratingScaleTrial_ger
572,<b>Geschmack</b> von: Erdbeeren,Fri Jul 12 2019 18:13:20 GMT+0200 (CEST),72,6,eine perfekt klare Vorstellung,6,4,5,6,5,Ich verstehe den Satz nicht nicht.,3,gustatory,6,1562948541030,keine Vorstellung,Both,19,3,,Abitur,"Stellen Sie sich den folgenden <b>Geschmack</b> vor und betrachten Sie sorgfältig die entstehende <b>geschmackliche Vorstellung</b>.<br />Bewerten Sie, wie lebhaft Sie sich Folgendes vorstellen können:",5,6,9070,6,None,German,weiblich,5,1562948000230,9.013333333333334,yes,5,6,ratingScaleTrial_ger
572,<b>Bewegung</b>: Das Hinsetzen auf einen Stuhl,Fri Jul 12 2019 18:13:20 GMT+0200 (CEST),72,6,eine perfekt klare Vorstellung,6,3,5,6,5,Ich verstehe den Satz nicht nicht.,3,motor,6,1562948541030,keine Vorstellung,Both,19,6,,Abitur,"Stellen Sie sich vor, das Folgende <b>zu tun</b> und betrachten Sie sorgfältig die entstehende Vorstellung, wie sich Ihre <b>Körperteile bewegen und anfühlen</b>, um das Beschriebene <b>auszuführen</b>.<br />Bewerten Sie, wie lebhaft Sie sich Folgendes vorstellen können:",5,6,6444,6,None,German,weiblich,6,1562948000230,9.013333333333334,yes,5,6,ratingScaleTrial_ger
572,<b>Gefühl</b>: Das Kitzeln einer Fliege auf der Haut,Fri Jul 12 2019 18:13:20 GMT+0200 (CEST),72,6,eine perfekt klare Vorstellung,6,2,5,6,5,Ich verstehe den Satz nicht nicht.,3,tactile,6,1562948541030,keine Vorstellung,Both,19,5,,Abitur,"Stellen Sie sich das <b>Gefühl</b> oder die <b>Berührung</b> des Folgenden vor und betrachten Sie sorgfältig die entstehende <b>taktile (fühlbare) Vorstellung</b>.<br />Bewerten Sie, wie lebhaft Sie sich Folgendes vorstellen können:",5,6,6430,6,None,German,weiblich,7,1562948000230,9.013333333333334,yes,5,6,ratingScaleTrial_ger
572,<b>Gefühl</b>: Eines schmerzend trockenen Halses,Fri Jul 12 2019 18:13:20 GMT+0200 (CEST),72,6,eine perfekt klare Vorstellung,6,39,5,6,5,Ich verstehe den Satz nicht nicht.,3,organic,6,1562948541030,keine Vorstellung,Both,19,6,,Abitur,"Stellen Sie sich das folgende <b>Gefühl</b> vor und begutachten Sie die genaue <b>Impression dieses Gefühles</b>, welches in Ihre Gedanken dazu kommt.<br />Bewerten Sie, wie lebhaft Sie sich das Folgende vorstellen können:",5,6,34438,6,None,German,weiblich,1,1562948000230,9.013333333333334,yes,5,6,ratingScaleTask
572,<b>Geschmack</b> von: Salz,Fri Jul 12 2019 18:13:20 GMT+0200 (CEST),72,6,eine perfekt klare Vorstellung,6,27,5,6,5,Ich verstehe den Satz nicht nicht.,3,gustatory,6,1562948541030,keine Vorstellung,Both,19,6,,Abitur,"Stellen Sie sich den folgenden <b>Geschmack</b> vor und betrachten Sie sorgfältig die entstehende <b>geschmackliche Vorstellung</b>.<br />Bewerten Sie, wie lebhaft Sie sich den Folgenden vorstellen können:",5,6,4409,6,None,German,weiblich,2,1562948000230,9.013333333333334,yes,5,6,ratingScaleTask
572,"<b>Gefühl</b> von: Das Unwohlsein, nachdem man zu viel gegessen hat.",Fri Jul 12 2019 18:13:20 GMT+0200 (CEST),72,6,eine perfekt klare Vorstellung,6,41,5,6,5,Ich verstehe den Satz nicht nicht.,3,organic,6,1562948541030,keine Vorstellung,Both,19,4,,Abitur,"Stellen Sie sich das folgende <b>Gefühl</b> vor und begutachten Sie die genaue <b>Impression dieses Gefühles</b>, welches in Ihre Gedanken dazu kommt.<br />Bewerten Sie, wie lebhaft Sie sich das Folgende vorstellen können:",5,6,3607,6,None,German,weiblich,3,1562948000230,9.013333333333334,yes,5,6,ratingScaleTask
572,<b>Bewegung</b>: Eine Treppe hoch rennen,Fri Jul 12 2019 18:13:20 GMT+0200 (CEST),72,6,eine perfekt klare Vorstellung,6,22,5,6,5,Ich verstehe den Satz nicht nicht.,3,motor,6,1562948541030,keine Vorstellung,Both,19,7,,Abitur,"Stellen Sie sich vor, das Folgende <b>zu tun</b> und betrachten Sie sorgfältig die entstehende Vorstellung, wie sich Ihre <b>Körperteile bewegen und anfühlen</b>, um das Beschriebene <b>auszuführen</b>.<br />Bewerten Sie, wie lebhaft Sie sich Folgendes vorstellen können:",5,6,5241,6,None,German,weiblich,4,1562948000230,9.013333333333334,yes,5,6,ratingScaleTask
572,<b>Geruch</b> von: Einem schlecht belüftetem Raum,Fri Jul 12 2019 18:13:20 GMT+0200 (CEST),72,6,eine perfekt klare Vorstellung,6,32,5,6,5,Ich verstehe den Satz nicht nicht.,3,olfactory,6,1562948541030,keine Vorstellung,Both,19,5,,Abitur,"Stellen Sie sich den folgenden <b>Geruch</b> vor und betrachten Sie sorgfältig die entstehende <b>geschmackliche Vorstellung</b>.<br />Bewerten Sie, wie lebhaft Sie sich den Folgenden vorstellen können:",5,6,7411,6,None,German,weiblich,5,1562948000230,9.013333333333334,yes,5,6,ratingScaleTask
572,<b>Gefühl</b> von: Leinen,Fri Jul 12 2019 18:13:20 GMT+0200 (CEST),72,6,eine perfekt klare Vorstellung,6,18,5,6,5,Ich verstehe den Satz nicht nicht.,3,tactile,6,1562948541030,keine Vorstellung,Both,19,3,,Abitur,"Stellen Sie sich das <b>Gefühl</b> des Folgenden <b>auf der Haut</b> vor und betrachten Sie sorgfältig die entstehende <b>taktile (fühlbare) Vorstellung</b>.<br />Bewerten Sie, wie lebhaft Sie sich Folgendes vorstellen können:",5,6,8990,6,None,German,weiblich,6,1562948000230,9.013333333333334,yes,5,6,ratingScaleTask
572,"<b>Geruch</b> von: Rindfleisch, das angebraten wird",Fri Jul 12 2019 18:13:20 GMT+0200 (CEST),72,6,eine perfekt klare Vorstellung,6,34,5,6,5,Ich verstehe den Satz nicht nicht.,3,olfactory,6,1562948541030,keine Vorstellung,Both,19,5,,Abitur,"Stellen Sie sich den folgenden <b>Geruch</b> vor und betrachten Sie sorgfältig die entstehende <b>Geruchsvorstellung</b>.<br />Bewerten Sie, wie lebhaft Sie sich den Folgenden vorstellen können",5,6,10452,6,None,German,weiblich,7,1562948000230,9.013333333333334,yes,5,6,ratingScaleTask
572,<b>Geruch</b> von: Frischer Farbe,Fri Jul 12 2019 18:13:20 GMT+0200 (CEST),72,6,eine perfekt klare Vorstellung,6,35,5,6,5,Ich verstehe den Satz nicht nicht.,3,olfactory,6,1562948541030,keine Vorstellung,Both,19,5,,Abitur,"Stellen Sie sich den folgenden <b>Geruch</b> vor und betrachten Sie sorgfältig die entstehende <b>Geruchsvorstellung</b>.<br />Bewerten Sie, wie lebhaft Sie sich den Folgenden vorstellen können:",5,6,3151,6,None,German,weiblich,8,1562948000230,9.013333333333334,yes,5,6,ratingScaleTask
572,<b>Bewegung</b>: Ein Objekt aus dem Weg treten,Fri Jul 12 2019 18:13:20 GMT+0200 (CEST),72,6,eine perfekt klare Vorstellung,6,26,5,6,5,Ich verstehe den Satz nicht nicht.,3,motor,6,1562948541030,keine Vorstellung,Both,19,6,,Abitur,"Stellen Sie sich vor, das Folgende <b>zu tun</b> und betrachten Sie sorgfältig die entstehende Vorstellung, wie sich Ihre <b>Körperteile bewegen und anfühlen</b>, um das Beschriebene <b>auszuführen</b>.<br />Bewerten Sie, wie lebhaft Sie sich Folgendes vorstellen können:",5,6,5755,6,None,German,weiblich,9,1562948000230,9.013333333333334,yes,5,6,ratingScaleTask
572,<b>Geschmack</b> von: (weißem) Zucker,Fri Jul 12 2019 18:13:20 GMT+0200 (CEST),72,6,eine perfekt klare Vorstellung,6,28,5,6,5,Ich verstehe den Satz nicht nicht.,3,gustatory,6,1562948541030,keine Vorstellung,Both,19,4,,Abitur,"Stellen Sie sich den folgenden <b>Geschmack</b> vor und betrachten Sie sorgfältig die entstehende <b>geschmackliche Vorstellung</b>.<br />Bewerten Sie, wie lebhaft Sie sich den Folgenden vorstellen können:",5,6,6781,6,None,German,weiblich,10,1562948000230,9.013333333333334,yes,5,6,ratingScaleTask
572,"<b>Aussehen</b> von seiner/ihrer: Genauen Kontur des Gesichtes, Kopf, Schultern und Körper",Fri Jul 12 2019 18:13:20 GMT+0200 (CEST),72,6,eine perfekt klare Vorstellung,6,7,5,6,5,Ich verstehe den Satz nicht nicht.,3,visual,6,1562948541030,keine Vorstellung,Both,19,3,,Abitur,"Denken Sie an eine*n Verwandte*n oder eine*n Freund*in, den/die Sie regelmäßig <b>sehen</b>, und betrachten Sie sorgfältig die entstehende <b>visuelle Vorstellung</b>.<br />Bewerten Sie, wie lebhaft Sie sich Folgendes vorstellen können:",5,6,15780,6,None,German,weiblich,11,1562948000230,9.013333333333334,yes,5,6,ratingScaleTask
572,<b>Gefühl</b> von: Ermüdung,Fri Jul 12 2019 18:13:20 GMT+0200 (CEST),72,6,eine perfekt klare Vorstellung,6,37,5,6,5,Ich verstehe den Satz nicht nicht.,3,organic,6,1562948541030,keine Vorstellung,Both,19,5,,Abitur,"Stellen Sie sich das folgende <b>Gefühl</b> vor und begutachten Sie die genaue <b>Impression dieses Gefühles</b>, welches in Ihre Gedanken dazu kommt.<br />Bewerten Sie, wie lebhaft Sie sich das Folgende vorstellen können:",5,6,7766,6,None,German,weiblich,12,1562948000230,9.013333333333334,yes,5,6,ratingScaleTask
572,<b>Gefühl</b> von: Schläfrigkeit,Fri Jul 12 2019 18:13:20 GMT+0200 (CEST),72,6,eine perfekt klare Vorstellung,6,40,5,6,5,Ich verstehe den Satz nicht nicht.,3,organic,6,1562948541030,keine Vorstellung,Both,19,5,,Abitur,"Stellen Sie sich das folgende <b>Gefühl</b> vor und begutachten Sie die genaue <b>Impression dieses Gefühles</b>, welches in Ihre Gedanken dazu kommt.<br />Bewerten Sie, wie lebhaft Sie sich das Folgende vorstellen können:",5,6,5878,6,None,German,weiblich,13,1562948000230,9.013333333333334,yes,5,6,ratingScaleTask
572,"<b>Bild</b> von: Seinem/Ihrem Gang, wie er/sie läuft, wie lang seine/ihre Schritte sind, etc.",Fri Jul 12 2019 18:13:20 GMT+0200 (CEST),72,6,eine perfekt klare Vorstellung,6,9,5,6,5,Ich verstehe den Satz nicht nicht.,3,visual,6,1562948541030,keine Vorstellung,Both,19,2,,Abitur,"Denken Sie an eine*n Verwandte*n oder eine*n Freund*in, den/die Sie regelmäßig <b>sehen</b>, und betrachten Sie sorgfältig die entstehende <b>visuelle Vorstellung</b>.<br />Bewerten Sie, wie lebhaft Sie sich Folgendes vorstellen können:",5,6,9000,6,None,German,weiblich,14,1562948000230,9.013333333333334,yes,5,6,ratingScaleTask
572,<b>Bewegung</b>: Über einen (kleinen) Bach springen,Fri Jul 12 2019 18:13:20 GMT+0200 (CEST),72,6,eine perfekt klare Vorstellung,6,23,5,6,5,Ich verstehe den Satz nicht nicht.,3,motor,6,1562948541030,keine Vorstellung,Both,19,6,,Abitur,"Stellen Sie sich, vor das Folgende <b>zu tun</b> und betrachten Sie sorgfältig die entstehende Vorstellung, wie sich <b>Ihre Körperteile bewegen und anfühlen</b>, um das Beschriebene <b>auszuführen</b>.<br />Bewerten Sie, wie lebhaft Sie sich Folgendes vorstellen können:",5,6,10482,6,None,German,weiblich,15,1562948000230,9.013333333333334,yes,5,6,ratingScaleTask
572,<b>Klang</b> von: Entweichendem Dampf,Fri Jul 12 2019 18:13:20 GMT+0200 (CEST),72,6,eine perfekt klare Vorstellung,6,15,5,6,5,Ich verstehe den Satz nicht nicht.,3,auditory,6,1562948541030,keine Vorstellung,Both,19,6,,Abitur,"Stellen Sie sich den folgenden <b>Klang</b> vor und betrachten Sie sorgfältig die entstehende <b>auditive Impression</b>.<br />Bewerten Sie, wie lebhaft Sie sich Folgendes vorstellen können:",5,6,7258,6,None,German,weiblich,16,1562948000230,9.013333333333334,yes,5,6,ratingScaleTask
572,<b>Geräusch</b>: Des Pfeifens einer Lokomotive,Fri Jul 12 2019 18:13:20 GMT+0200 (CEST),72,6,eine perfekt klare Vorstellung,6,12,5,6,5,Ich verstehe den Satz nicht nicht.,3,auditory,6,1562948541030,keine Vorstellung,Both,19,6,,Abitur,"Stellen Sie sich das folgende <b>Geräusch</b> vor und betrachten Sie sorgfältig die entstehende <b>auditive Impression</b>.<br />Bewerten Sie, wie lebhaft Sie sich Folgendes Geräusch vorstellen können:",5,6,4710,6,None,German,weiblich,17,1562948000230,9.013333333333334,yes,5,6,ratingScaleTask
572,"<b>Bild</b> von: Den verschiedenen Farben, mit denen sich die Person häufig kleidet",Fri Jul 12 2019 18:13:20 GMT+0200 (CEST),72,6,eine perfekt klare Vorstellung,6,10,5,6,5,Ich verstehe den Satz nicht nicht.,3,visual,6,1562948541030,keine Vorstellung,Both,19,5,,Abitur,"Denken Sie an eine*n Verwandte*n oder eine*n Freund*in, den/die Sie regelmäßig <b>sehen</b>, und betrachten Sie sorgfältig die entstehende <b>visuelle Vorstellung</b>.<br />Bewerten Sie, wie lebhaft Sie sich Folgendes vorstellen können:",5,6,20839,6,None,German,weiblich,18,1562948000230,9.013333333333334,yes,5,6,ratingScaleTask
572,<b>Bewegung</b>: Einen Kreis auf ein Blatt Papier malen,Fri Jul 12 2019 18:13:20 GMT+0200 (CEST),72,6,eine perfekt klare Vorstellung,6,24,5,6,5,Ich verstehe den Satz nicht nicht.,3,motor,6,1562948541030,keine Vorstellung,Both,19,5,,Abitur,"Stellen Sie sich vor, das Folgende <b>zu tun</b> und betrachten Sie sorgfältig die entstehende Vorstellung, wie sich Ihre <b>Körperteile bewegen und anfühlen</b>, um das Beschriebene <b>auszuführen</b>.<br />Bewerten Sie, wie lebhaft Sie sich Folgendes vorstellen können:",5,6,6423,6,None,German,weiblich,19,1562948000230,9.013333333333334,yes,5,6,ratingScaleTask
572,<b>Gefühl</b> von: Hunger,Fri Jul 12 2019 18:13:20 GMT+0200 (CEST),72,6,eine perfekt klare Vorstellung,6,38,5,6,5,Ich verstehe den Satz nicht nicht.,3,organic,6,1562948541030,keine Vorstellung,Both,19,6,,Abitur,"Stellen Sie sich das folgende <b>Gefühl</b> vor und begutachten Sie die genaue <b>Impression dieses Gefühles</b>, welches in Ihre Gedanken dazu kommt.<br />Bewerten Sie, wie lebhaft Sie sich das Folgende vorstellen können:",5,6,5515,6,None,German,weiblich,20,1562948000230,9.013333333333334,yes,5,6,ratingScaleTask
572,<b>Geschmack</b> von: Orangen,Fri Jul 12 2019 18:13:20 GMT+0200 (CEST),72,6,eine perfekt klare Vorstellung,6,29,5,6,5,Ich verstehe den Satz nicht nicht.,3,gustatory,6,1562948541030,keine Vorstellung,Both,19,4,,Abitur,"Stellen Sie sich den folgenden <b>Geschmack</b> vor und betrachten Sie sorgfältig die entstehende <b>geschmackliche Vorstellung</b>.<br />Bewerten Sie, wie lebhaft Sie sich den Folgenden vorstellen können:",5,6,10069,6,None,German,weiblich,21,1562948000230,9.013333333333334,yes,5,6,ratingScaleTask
572,<b>Gefühl</b> von: Der Wärme eines lauwarmen Bades,Fri Jul 12 2019 18:13:20 GMT+0200 (CEST),72,6,eine perfekt klare Vorstellung,6,21,5,6,5,Ich verstehe den Satz nicht nicht.,3,tactile,6,1562948541030,keine Vorstellung,Both,19,6,,Abitur,"Stellen Sie sich das <b>Gefühl</b> des Folgenden <b>auf der Haut</b> vor und betrachten Sie sorgfältig die entstehende <b>taktile (fühlbare) Vorstellung</b>.<br />Bewerten Sie, wie lebhaft Sie sich Folgendes vorstellen können:",5,6,9453,6,None,German,weiblich,22,1562948000230,9.013333333333334,yes,5,6,ratingScaleTask
572,<b>Klang</b>: des Klatschens von Händen beim Applaudieren,Fri Jul 12 2019 18:13:20 GMT+0200 (CEST),72,6,eine perfekt klare Vorstellung,6,16,5,6,5,Ich verstehe den Satz nicht nicht.,3,auditory,6,1562948541030,keine Vorstellung,Both,19,6,,Abitur,"Stellen Sie sich den folgenden <b>Klang</b> vor und betrachten Sie sorgfältig die entstehende <b>auditive Impression</b>.<br />Bewerten Sie, wie lebhaft Sie sich Folgendes vorstellen können:",5,6,7334,6,None,German,weiblich,23,1562948000230,9.013333333333334,yes,5,6,ratingScaleTask
572,<b>Geruch</b> von: Neuem Leder,Fri Jul 12 2019 18:13:20 GMT+0200 (CEST),72,6,eine perfekt klare Vorstellung,6,36,5,6,5,Ich verstehe den Satz nicht nicht.,3,olfactory,6,1562948541030,keine Vorstellung,Both,19,4,,Abitur,"Stellen Sie sich den folgenden <b>Geruch</b> vor und betrachten Sie sorgfältig die entstehende <b>Geruchsvorstellung</b>.<br />Bewerten Sie, wie lebhaft Sie sich den Folgenden vorstellen können:",5,6,5746,6,None,German,weiblich,24,1562948000230,9.013333333333334,yes,5,6,ratingScaleTask
572,<b>Geschmack</b> von: Marmelade,Fri Jul 12 2019 18:13:20 GMT+0200 (CEST),72,6,eine perfekt klare Vorstellung,6,30,5,6,5,Ich verstehe den Satz nicht nicht.,3,gustatory,6,1562948541030,keine Vorstellung,Both,19,6,,Abitur,"Stellen Sie sich den folgenden <b>Geschmack</b> vor und betrachten Sie sorgfältig die entstehende <b>geschmackliche Vorstellung</b>.<br />Bewerten Sie, wie lebhaft Sie sich den Folgenden vorstellen können:",5,6,6397,6,None,German,weiblich,25,1562948000230,9.013333333333334,yes,5,6,ratingScaleTask
572,<b>Geruch</b>: bei dem Kochen von Kohl.,Fri Jul 12 2019 18:13:20 GMT+0200 (CEST),72,6,eine perfekt klare Vorstellung,6,33,5,6,5,Ich verstehe den Satz nicht nicht.,3,olfactory,6,1562948541030,keine Vorstellung,Both,19,2,,Abitur,"Stellen Sie sich den folgenden <b>Geruch</b> vor und betrachten Sie sorgfältig die entstehende <b>Geruchsvorstellung</b>.<br />Bewerten Sie, wie lebhaft Sie sich den Folgenden vorstellen können:",5,6,4396,6,None,German,weiblich,26,1562948000230,9.013333333333334,yes,5,6,ratingScaleTask
572,<b>Gefühl</b> von: Sand,Fri Jul 12 2019 18:13:20 GMT+0200 (CEST),72,6,eine perfekt klare Vorstellung,6,17,5,6,5,Ich verstehe den Satz nicht nicht.,3,tactile,6,1562948541030,keine Vorstellung,Both,19,5,,Abitur,"Stellen Sie sich das <b>Gefühl</b> des Folgenden <b>auf der Haut</b> vor und betrachten Sie sorgfältig die entstehende <b>taktile (fühlbare) Vorstellung</b>.<br />Bewerten Sie, wie lebhaft Sie sich Folgendes vorstellen können:",5,6,5364,6,None,German,weiblich,27,1562948000230,9.013333333333334,yes,5,6,ratingScaleTask
572,<b>Klang</b>: Des Miauens einer Katze,Fri Jul 12 2019 18:13:20 GMT+0200 (CEST),72,6,eine perfekt klare Vorstellung,6,14,5,6,5,Ich verstehe den Satz nicht nicht.,3,auditory,6,1562948541030,keine Vorstellung,Both,19,4,,Abitur,"Stellen Sie sich den folgenden <b>Klang</b> vor und betrachten Sie sorgfältig die entstehende <b>auditive Impression</b>.<br />Bewerten Sie, wie lebhaft Sie sich Folgendes vorstellen können:",5,6,7015,6,None,German,weiblich,28,1562948000230,9.013333333333334,yes,5,6,ratingScaleTask
572,<b>Gefühl</b> vom: Piksen einer Stecknadel,Fri Jul 12 2019 18:13:20 GMT+0200 (CEST),72,6,eine perfekt klare Vorstellung,6,20,5,6,5,Ich verstehe den Satz nicht nicht.,3,tactile,6,1562948541030,keine Vorstellung,Both,19,6,,Abitur,"Stellen Sie sich das <b>Gefühl</b> des Folgenden <b>auf der Haut</b> vor und betrachten Sie sorgfältig die entstehende <b>taktile (fühlbare) Vorstellung</b>.<br />Bewerten Sie, wie lebhaft Sie sich Folgendes vorstellen können:",5,6,9979,6,None,German,weiblich,29,1562948000230,9.013333333333334,yes,5,6,ratingScaleTask
572,<b>Gefühl</b> von: Fell,Fri Jul 12 2019 18:13:20 GMT+0200 (CEST),72,6,eine perfekt klare Vorstellung,6,19,5,6,5,Ich verstehe den Satz nicht nicht.,3,tactile,6,1562948541030,keine Vorstellung,Both,19,5,,Abitur,"Stellen Sie sich das <b>Gefühl</b> des Folgenden <b>auf der Haut</b> vor und betrachten Sie sorgfältig die entstehende <b>taktile (fühlbare) Vorstellung</b>.<br />Bewerten Sie, wie lebhaft Sie sich Folgendes vorstellen können:",5,6,4929,6,None,German,weiblich,30,1562948000230,9.013333333333334,yes,5,6,ratingScaleTask
572,"<b>Bild</b> von seinen/ihren: Charakteristischen Haltungen von Kopf, Körper, etc.",Fri Jul 12 2019 18:13:20 GMT+0200 (CEST),72,6,eine perfekt klare Vorstellung,6,8,5,6,5,Ich verstehe den Satz nicht nicht.,3,visual,6,1562948541030,keine Vorstellung,Both,19,3,,Abitur,"Denken Sie an eine*n Verwandte*n oder eine*n Freund*in, den/die Sie regelmäßig <b>sehen</b>, und betrachten Sie sorgfältig die entstehende <b>visuelle Vorstellung</b>.<br />Bewerten Sie, wie lebhaft Sie sich Folgendes vorstellen können:",5,6,12419,6,None,German,weiblich,31,1562948000230,9.013333333333334,yes,5,6,ratingScaleTask
572,<b>Klang</b>: Eines hupenden Autos,Fri Jul 12 2019 18:13:20 GMT+0200 (CEST),72,6,eine perfekt klare Vorstellung,6,13,5,6,5,Ich verstehe den Satz nicht nicht.,3,auditory,6,1562948541030,keine Vorstellung,Both,19,6,,Abitur,"Stellen Sie sich den folgenden <b>Klang</b> vor und betrachten Sie sorgfältig die entstehende <b>auditive Impression</b>.<br />Bewerten Sie, wie lebhaft Sie sich Folgendes vorstellen können:",5,6,5271,6,None,German,weiblich,32,1562948000230,9.013333333333334,yes,5,6,ratingScaleTask
572,<b>Geschmack</b> von: Deiner Lieblings-Suppe,Fri Jul 12 2019 18:13:20 GMT+0200 (CEST),72,6,eine perfekt klare Vorstellung,6,31,5,6,5,Ich verstehe den Satz nicht nicht.,3,gustatory,6,1562948541030,keine Vorstellung,Both,19,4,,Abitur,"Stellen Sie sich den folgenden <b>Geschmack</b> vor und betrachten Sie sorgfältig die entstehende <b>geschmackliche Vorstellung</b>.<br />Bewerten Sie, wie lebhaft Sie sich den Folgenden vorstellen können:",5,6,5734,6,None,German,weiblich,33,1562948000230,9.013333333333334,yes,5,6,ratingScaleTask
572,"<b>Bild</b> von: Der Sonne, wie sie am Horizont untergeht",Fri Jul 12 2019 18:13:20 GMT+0200 (CEST),72,6,eine perfekt klare Vorstellung,6,11,5,6,5,Ich verstehe den Satz nicht nicht.,3,visual,6,1562948541030,keine Vorstellung,Both,19,6,,Abitur,"Stellen Sie sich das folgende <b>Bild</b> vor und betrachten Sie sorgfältig die entstehende <b>visuelle Vorstellung</b>.<br />Bewerten Sie, wie lebhaft Sie sich Folgendes vorstellen können:",5,6,8909,6,None,German,weiblich,34,1562948000230,9.013333333333334,yes,5,6,ratingScaleTask
572,<b>Bewegung</b>: Zu einem hohen Regal hoch greifen,Fri Jul 12 2019 18:13:20 GMT+0200 (CEST),72,6,eine perfekt klare Vorstellung,6,25,5,6,5,Ich verstehe den Satz nicht nicht.,3,motor,6,1562948541030,keine Vorstellung,Both,19,5,,Abitur,"Stellen Sie sich vor, das Folgende <b>zu tun</b> und betrachten Sie sorgfältig die entstehende Vorstellung, wie sich Ihre <b>Körperteile bewegen und anfühlen</b>, um das Beschriebene <b>auszuführen</b>.<br />Bewerten Sie, wie lebhaft Sie sich Folgendes vorstellen können:",5,6,8944,6,None,German,weiblich,35,1562948000230,9.013333333333334,yes,5,6,ratingScaleTask
628,<b>Bewegung</b>: Das Hinsetzen auf einen Stuhl,Sat Jul 13 2019 09:44:27 GMT-0600 (Nordamerikanische Inland-Normalzeit),72,6,eine perfekt klare Vorstellung,7,3,5,7,5,Ich verstehe den Satz nicht nicht.,5,motor,6,1563033221260,keine Vorstellung,English,21,7,,Abitur,"Stellen Sie sich vor, das Folgende <b>zu tun</b> und betrachten Sie sorgfältig die entstehende Vorstellung, wie sich Ihre <b>Körperteile bewegen und anfühlen</b>, um das Beschriebene <b>auszuführen</b>.<br />Bewerten Sie, wie lebhaft Sie sich Folgendes vorstellen können:",7,7,22316,5,German,German,weiblich,1,1563032667094,9.2361,no,4,5,ratingScaleTrial_ger
628,<b>Klang / Geräusch</b> von: Auf die Straße fallender Regen,Sat Jul 13 2019 09:44:27 GMT-0600 (Nordamerikanische Inland-Normalzeit),72,6,eine perfekt klare Vorstellung,7,1,5,7,5,Ich verstehe den Satz nicht nicht.,5,auditory,6,1563033221260,keine Vorstellung,English,21,5,,Abitur,"Stellen Sie sich den folgenden <b>Klang</b> bzw. das folgende <b>Geräusch</b> vor und betrachten Sie sorgfältig die entstehende <b>auditive Vorstellung</b>.<br />Bewerten Sie, wie lebhaft Sie sich Folgendes vorstellen können:",7,7,10583,5,German,German,weiblich,2,1563032667094,9.2361,no,4,5,ratingScaleTrial_ger
628,<b>Gefühl</b>: Das Kitzeln einer Fliege auf der Haut,Sat Jul 13 2019 09:44:27 GMT-0600 (Nordamerikanische Inland-Normalzeit),72,6,eine perfekt klare Vorstellung,7,2,5,7,5,Ich verstehe den Satz nicht nicht.,5,tactile,6,1563033221260,keine Vorstellung,English,21,6,,Abitur,"Stellen Sie sich das <b>Gefühl</b> oder die <b>Berührung</b> des Folgenden vor und betrachten Sie sorgfältig die entstehende <b>taktile (fühlbare) Vorstellung</b>.<br />Bewerten Sie, wie lebhaft Sie sich Folgendes vorstellen können:",7,7,7921,5,German,German,weiblich,3,1563032667094,9.2361,no,4,5,ratingScaleTrial_ger
628,<b>Geschmack</b> von: Erdbeeren,Sat Jul 13 2019 09:44:27 GMT-0600 (Nordamerikanische Inland-Normalzeit),72,6,eine perfekt klare Vorstellung,7,4,5,7,5,Ich verstehe den Satz nicht nicht.,5,gustatory,6,1563033221260,keine Vorstellung,English,21,7,,Abitur,"Stellen Sie sich den folgenden <b>Geschmack</b> vor und betrachten Sie sorgfältig die entstehende <b>geschmackliche Vorstellung</b>.<br />Bewerten Sie, wie lebhaft Sie sich Folgendes vorstellen können:",7,7,11571,5,German,German,weiblich,4,1563032667094,9.2361,no,4,5,ratingScaleTrial_ger
628,"<b>Gefühl</b>: das Sie hatten, wenn die Schulklingel läutete",Sat Jul 13 2019 09:44:27 GMT-0600 (Nordamerikanische Inland-Normalzeit),72,6,eine perfekt klare Vorstellung,7,6,5,7,5,Ich verstehe den Satz nicht nicht.,5,organic,6,1563033221260,keine Vorstellung,English,21,6,,Abitur,"Stellen Sie sich das folgende <b>Gefühl</b> vor und begutachten Sie genau die <b>Vorstellung, welche in Ihre Gedanken dazu entsteht</b>.<br />Bewerten Sie, wie lebhaft Sie sich Folgendes vorstellen können:",7,7,12500,5,German,German,weiblich,5,1563032667094,9.2361,no,4,5,ratingScaleTrial_ger
628,"<b>Bild</b>: Eines Balls, der auf und ab hüpft",Sat Jul 13 2019 09:44:27 GMT-0600 (Nordamerikanische Inland-Normalzeit),72,6,eine perfekt klare Vorstellung,7,0,5,7,5,Ich verstehe den Satz nicht nicht.,5,visual,6,1563033221260,keine Vorstellung,English,21,7,,Abitur,"Stellen Sie sich das folgende <b>Bild</b> vor und betrachten Sie sorgfältig die entstehende <b>visuelle Vorstellung</b>.<br />Bewerten Sie, wie lebhaft Sie sich Folgendes vorstellen können:",7,7,7077,5,German,German,weiblich,6,1563032667094,9.2361,no,4,5,ratingScaleTrial_ger
628,<b>Geruch</b> von: frisch gebrühtem Kaffee,Sat Jul 13 2019 09:44:27 GMT-0600 (Nordamerikanische Inland-Normalzeit),72,6,eine perfekt klare Vorstellung,7,5,5,7,5,Ich verstehe den Satz nicht nicht.,5,olfactory,6,1563033221260,keine Vorstellung,English,21,7,,Abitur,"Stellen Sie sich den folgenden <b>Geruch</b> vor und betrachten Sie sorgfältig die entstehende <b>Geruchsvorstellung</b>.<br />Bewerten Sie, wie lebhaft Sie sich Folgendes vorstellen können:",7,7,3363,5,German,German,weiblich,7,1563032667094,9.2361,no,4,5,ratingScaleTrial_ger
628,<b>Klang</b>: des Klatschens von Händen beim Applaudieren,Sat Jul 13 2019 09:44:27 GMT-0600 (Nordamerikanische Inland-Normalzeit),72,6,eine perfekt klare Vorstellung,7,16,5,7,5,Ich verstehe den Satz nicht nicht.,5,auditory,6,1563033221260,keine Vorstellung,English,21,7,,Abitur,"Stellen Sie sich den folgenden <b>Klang</b> vor und betrachten Sie sorgfältig die entstehende <b>auditive Impression</b>.<br />Bewerten Sie, wie lebhaft Sie sich Folgendes vorstellen können:",7,7,5392,5,German,German,weiblich,1,1563032667094,9.2361,no,4,5,ratingScaleTask
628,<b>Gefühl</b> von: Hunger,Sat Jul 13 2019 09:44:27 GMT-0600 (Nordamerikanische Inland-Normalzeit),72,6,eine perfekt klare Vorstellung,7,38,5,7,5,Ich verstehe den Satz nicht nicht.,5,organic,6,1563033221260,keine Vorstellung,English,21,7,,Abitur,"Stellen Sie sich das folgende <b>Gefühl</b> vor und begutachten Sie die genaue <b>Impression dieses Gefühles</b>, welches in Ihre Gedanken dazu kommt.<br />Bewerten Sie, wie lebhaft Sie sich das Folgende vorstellen können:",7,7,20862,5,German,German,weiblich,2,1563032667094,9.2361,no,4,5,ratingScaleTask
628,<b>Geschmack</b> von: Orangen,Sat Jul 13 2019 09:44:27 GMT-0600 (Nordamerikanische Inland-Normalzeit),72,6,eine perfekt klare Vorstellung,7,29,5,7,5,Ich verstehe den Satz nicht nicht.,5,gustatory,6,1563033221260,keine Vorstellung,English,21,7,,Abitur,"Stellen Sie sich den folgenden <b>Geschmack</b> vor und betrachten Sie sorgfältig die entstehende <b>geschmackliche Vorstellung</b>.<br />Bewerten Sie, wie lebhaft Sie sich den Folgenden vorstellen können:",7,7,5870,5,German,German,weiblich,3,1563032667094,9.2361,no,4,5,ratingScaleTask
628,"<b>Bild</b> von: Den verschiedenen Farben, mit denen sich die Person häufig kleidet",Sat Jul 13 2019 09:44:27 GMT-0600 (Nordamerikanische Inland-Normalzeit),72,6,eine perfekt klare Vorstellung,7,10,5,7,5,Ich verstehe den Satz nicht nicht.,5,visual,6,1563033221260,keine Vorstellung,English,21,7,,Abitur,"Denken Sie an eine*n Verwandte*n oder eine*n Freund*in, den/die Sie regelmäßig <b>sehen</b>, und betrachten Sie sorgfältig die entstehende <b>visuelle Vorstellung</b>.<br />Bewerten Sie, wie lebhaft Sie sich Folgendes vorstellen können:",7,7,15727,5,German,German,weiblich,4,1563032667094,9.2361,no,4,5,ratingScaleTask
628,<b>Bewegung</b>: Zu einem hohen Regal hoch greifen,Sat Jul 13 2019 09:44:27 GMT-0600 (Nordamerikanische Inland-Normalzeit),72,6,eine perfekt klare Vorstellung,7,25,5,7,5,Ich verstehe den Satz nicht nicht.,5,motor,6,1563033221260,keine Vorstellung,English,21,7,,Abitur,"Stellen Sie sich vor, das Folgende <b>zu tun</b> und betrachten Sie sorgfältig die entstehende Vorstellung, wie sich Ihre <b>Körperteile bewegen und anfühlen</b>, um das Beschriebene <b>auszuführen</b>.<br />Bewerten Sie, wie lebhaft Sie sich Folgendes vorstellen können:",7,7,4917,5,German,German,weiblich,5,1563032667094,9.2361,no,4,5,ratingScaleTask
628,<b>Gefühl</b> von: Fell,Sat Jul 13 2019 09:44:27 GMT-0600 (Nordamerikanische Inland-Normalzeit),72,6,eine perfekt klare Vorstellung,7,19,5,7,5,Ich verstehe den Satz nicht nicht.,5,tactile,6,1563033221260,keine Vorstellung,English,21,5,,Abitur,"Stellen Sie sich das <b>Gefühl</b> des Folgenden <b>auf der Haut</b> vor und betrachten Sie sorgfältig die entstehende <b>taktile (fühlbare) Vorstellung</b>.<br />Bewerten Sie, wie lebhaft Sie sich Folgendes vorstellen können:",7,7,9127,5,German,German,weiblich,6,1563032667094,9.2361,no,4,5,ratingScaleTask
628,<b>Gefühl</b> von: Ermüdung,Sat Jul 13 2019 09:44:27 GMT-0600 (Nordamerikanische Inland-Normalzeit),72,6,eine perfekt klare Vorstellung,7,37,5,7,5,Ich verstehe den Satz nicht nicht.,5,organic,6,1563033221260,keine Vorstellung,English,21,7,,Abitur,"Stellen Sie sich das folgende <b>Gefühl</b> vor und begutachten Sie die genaue <b>Impression dieses Gefühles</b>, welches in Ihre Gedanken dazu kommt.<br />Bewerten Sie, wie lebhaft Sie sich das Folgende vorstellen können:",7,7,8851,5,German,German,weiblich,7,1563032667094,9.2361,no,4,5,ratingScaleTask
628,<b>Gefühl</b> von: Der Wärme eines lauwarmen Bades,Sat Jul 13 2019 09:44:27 GMT-0600 (Nordamerikanische Inland-Normalzeit),72,6,eine perfekt klare Vorstellung,7,21,5,7,5,Ich verstehe den Satz nicht nicht.,5,tactile,6,1563033221260,keine Vorstellung,English,21,7,,Abitur,"Stellen Sie sich das <b>Gefühl</b> des Folgenden <b>auf der Haut</b> vor und betrachten Sie sorgfältig die entstehende <b>taktile (fühlbare) Vorstellung</b>.<br />Bewerten Sie, wie lebhaft Sie sich Folgendes vorstellen können:",7,7,8399,5,German,German,weiblich,8,1563032667094,9.2361,no,4,5,ratingScaleTask
628,<b>Bewegung</b>: Eine Treppe hoch rennen,Sat Jul 13 2019 09:44:27 GMT-0600 (Nordamerikanische Inland-Normalzeit),72,6,eine perfekt klare Vorstellung,7,22,5,7,5,Ich verstehe den Satz nicht nicht.,5,motor,6,1563033221260,keine Vorstellung,English,21,6,,Abitur,"Stellen Sie sich vor, das Folgende <b>zu tun</b> und betrachten Sie sorgfältig die entstehende Vorstellung, wie sich Ihre <b>Körperteile bewegen und anfühlen</b>, um das Beschriebene <b>auszuführen</b>.<br />Bewerten Sie, wie lebhaft Sie sich Folgendes vorstellen können:",7,7,3936,5,German,German,weiblich,9,1563032667094,9.2361,no,4,5,ratingScaleTask
628,<b>Geruch</b> von: Frischer Farbe,Sat Jul 13 2019 09:44:27 GMT-0600 (Nordamerikanische Inland-Normalzeit),72,6,eine perfekt klare Vorstellung,7,35,5,7,5,Ich verstehe den Satz nicht nicht.,5,olfactory,6,1563033221260,keine Vorstellung,English,21,5,,Abitur,"Stellen Sie sich den folgenden <b>Geruch</b> vor und betrachten Sie sorgfältig die entstehende <b>Geruchsvorstellung</b>.<br />Bewerten Sie, wie lebhaft Sie sich den Folgenden vorstellen können:",7,7,5191,5,German,German,weiblich,10,1563032667094,9.2361,no,4,5,ratingScaleTask
628,<b>Gefühl</b> von: Schläfrigkeit,Sat Jul 13 2019 09:44:27 GMT-0600 (Nordamerikanische Inland-Normalzeit),72,6,eine perfekt klare Vorstellung,7,40,5,7,5,Ich verstehe den Satz nicht nicht.,5,organic,6,1563033221260,keine Vorstellung,English,21,7,,Abitur,"Stellen Sie sich das folgende <b>Gefühl</b> vor und begutachten Sie die genaue <b>Impression dieses Gefühles</b>, welches in Ihre Gedanken dazu kommt.<br />Bewerten Sie, wie lebhaft Sie sich das Folgende vorstellen können:",7,7,4590,5,German,German,weiblich,11,1563032667094,9.2361,no,4,5,ratingScaleTask
628,<b>Gefühl</b>: Eines schmerzend trockenen Halses,Sat Jul 13 2019 09:44:27 GMT-0600 (Nordamerikanische Inland-Normalzeit),72,6,eine perfekt klare Vorstellung,7,39,5,7,5,Ich verstehe den Satz nicht nicht.,5,organic,6,1563033221260,keine Vorstellung,English,21,6,,Abitur,"Stellen Sie sich das folgende <b>Gefühl</b> vor und begutachten Sie die genaue <b>Impression dieses Gefühles</b>, welches in Ihre Gedanken dazu kommt.<br />Bewerten Sie, wie lebhaft Sie sich das Folgende vorstellen können:",7,7,5988,5,German,German,weiblich,12,1563032667094,9.2361,no,4,5,ratingScaleTask
628,<b>Geschmack</b> von: Salz,Sat Jul 13 2019 09:44:27 GMT-0600 (Nordamerikanische Inland-Normalzeit),72,6,eine perfekt klare Vorstellung,7,27,5,7,5,Ich verstehe den Satz nicht nicht.,5,gustatory,6,1563033221260,keine Vorstellung,English,21,4,,Abitur,"Stellen Sie sich den folgenden <b>Geschmack</b> vor und betrachten Sie sorgfältig die entstehende <b>geschmackliche Vorstellung</b>.<br />Bewerten Sie, wie lebhaft Sie sich den Folgenden vorstellen können:",7,7,5074,5,German,German,weiblich,13,1563032667094,9.2361,no,4,5,ratingScaleTask
628,<b>Geschmack</b> von: Marmelade,Sat Jul 13 2019 09:44:27 GMT-0600 (Nordamerikanische Inland-Normalzeit),72,6,eine perfekt klare Vorstellung,7,30,5,7,5,Ich verstehe den Satz nicht nicht.,5,gustatory,6,1563033221260,keine Vorstellung,English,21,4,,Abitur,"Stellen Sie sich den folgenden <b>Geschmack</b> vor und betrachten Sie sorgfältig die entstehende <b>geschmackliche Vorstellung</b>.<br />Bewerten Sie, wie lebhaft Sie sich den Folgenden vorstellen können:",7,7,5353,5,German,German,weiblich,14,1563032667094,9.2361,no,4,5,ratingScaleTask
628,"<b>Gefühl</b> von: Das Unwohlsein, nachdem man zu viel gegessen hat.",Sat Jul 13 2019 09:44:27 GMT-0600 (Nordamerikanische Inland-Normalzeit),72,6,eine perfekt klare Vorstellung,7,41,5,7,5,Ich verstehe den Satz nicht nicht.,5,organic,6,1563033221260,keine Vorstellung,English,21,7,,Abitur,"Stellen Sie sich das folgende <b>Gefühl</b> vor und begutachten Sie die genaue <b>Impression dieses Gefühles</b>, welches in Ihre Gedanken dazu kommt.<br />Bewerten Sie, wie lebhaft Sie sich das Folgende vorstellen können:",7,7,8722,5,German,German,weiblich,15,1563032667094,9.2361,no,4,5,ratingScaleTask
628,<b>Gefühl</b> vom: Piksen einer Stecknadel,Sat Jul 13 2019 09:44:27 GMT-0600 (Nordamerikanische Inland-Normalzeit),72,6,eine perfekt klare Vorstellung,7,20,5,7,5,Ich verstehe den Satz nicht nicht.,5,tactile,6,1563033221260,keine Vorstellung,English,21,7,,Abitur,"Stellen Sie sich das <b>Gefühl</b> des Folgenden <b>auf der Haut</b> vor und betrachten Sie sorgfältig die entstehende <b>taktile (fühlbare) Vorstellung</b>.<br />Bewerten Sie, wie lebhaft Sie sich Folgendes vorstellen können:",7,7,9124,5,German,German,weiblich,16,1563032667094,9.2361,no,4,5,ratingScaleTask
628,<b>Klang</b> von: Entweichendem Dampf,Sat Jul 13 2019 09:44:27 GMT-0600 (Nordamerikanische Inland-Normalzeit),72,6,eine perfekt klare Vorstellung,7,15,5,7,5,Ich verstehe den Satz nicht nicht.,5,auditory,6,1563033221260,keine Vorstellung,English,21,7,,Abitur,"Stellen Sie sich den folgenden <b>Klang</b> vor und betrachten Sie sorgfältig die entstehende <b>auditive Impression</b>.<br />Bewerten Sie, wie lebhaft Sie sich Folgendes vorstellen können:",7,7,5979,5,German,German,weiblich,17,1563032667094,9.2361,no,4,5,ratingScaleTask
628,"<b>Aussehen</b> von seiner/ihrer: Genauen Kontur des Gesichtes, Kopf, Schultern und Körper",Sat Jul 13 2019 09:44:27 GMT-0600 (Nordamerikanische Inland-Normalzeit),72,6,eine perfekt klare Vorstellung,7,7,5,7,5,Ich verstehe den Satz nicht nicht.,5,visual,6,1563033221260,keine Vorstellung,English,21,7,,Abitur,"Denken Sie an eine*n Verwandte*n oder eine*n Freund*in, den/die Sie regelmäßig <b>sehen</b>, und betrachten Sie sorgfältig die entstehende <b>visuelle Vorstellung</b>.<br />Bewerten Sie, wie lebhaft Sie sich Folgendes vorstellen können:",7,7,16654,5,German,German,weiblich,18,1563032667094,9.2361,no,4,5,ratingScaleTask
628,<b>Geschmack</b> von: (weißem) Zucker,Sat Jul 13 2019 09:44:27 GMT-0600 (Nordamerikanische Inland-Normalzeit),72,6,eine perfekt klare Vorstellung,7,28,5,7,5,Ich verstehe den Satz nicht nicht.,5,gustatory,6,1563033221260,keine Vorstellung,English,21,4,,Abitur,"Stellen Sie sich den folgenden <b>Geschmack</b> vor und betrachten Sie sorgfältig die entstehende <b>geschmackliche Vorstellung</b>.<br />Bewerten Sie, wie lebhaft Sie sich den Folgenden vorstellen können:",7,7,8790,5,German,German,weiblich,19,1563032667094,9.2361,no,4,5,ratingScaleTask
628,<b>Geschmack</b> von: Deiner Lieblings-Suppe,Sat Jul 13 2019 09:44:27 GMT-0600 (Nordamerikanische Inland-Normalzeit),72,6,eine perfekt klare Vorstellung,7,31,5,7,5,Ich verstehe den Satz nicht nicht.,5,gustatory,6,1563033221260,keine Vorstellung,English,21,4,,Abitur,"Stellen Sie sich den folgenden <b>Geschmack</b> vor und betrachten Sie sorgfältig die entstehende <b>geschmackliche Vorstellung</b>.<br />Bewerten Sie, wie lebhaft Sie sich den Folgenden vorstellen können:",7,7,11268,5,German,German,weiblich,20,1563032667094,9.2361,no,4,5,ratingScaleTask
628,<b>Gefühl</b> von: Leinen,Sat Jul 13 2019 09:44:27 GMT-0600 (Nordamerikanische Inland-Normalzeit),72,6,eine perfekt klare Vorstellung,7,18,5,7,5,Ich verstehe den Satz nicht nicht.,5,tactile,6,1563033221260,keine Vorstellung,English,21,5,,Abitur,"Stellen Sie sich das <b>Gefühl</b> des Folgenden <b>auf der Haut</b> vor und betrachten Sie sorgfältig die entstehende <b>taktile (fühlbare) Vorstellung</b>.<br />Bewerten Sie, wie lebhaft Sie sich Folgendes vorstellen können:",7,7,12189,5,German,German,weiblich,21,1563032667094,9.2361,no,4,5,ratingScaleTask
628,<b>Geruch</b> von: Einem schlecht belüftetem Raum,Sat Jul 13 2019 09:44:27 GMT-0600 (Nordamerikanische Inland-Normalzeit),72,6,eine perfekt klare Vorstellung,7,32,5,7,5,Ich verstehe den Satz nicht nicht.,5,olfactory,6,1563033221260,keine Vorstellung,English,21,7,,Abitur,"Stellen Sie sich den folgenden <b>Geruch</b> vor und betrachten Sie sorgfältig die entstehende <b>geschmackliche Vorstellung</b>.<br />Bewerten Sie, wie lebhaft Sie sich den Folgenden vorstellen können:",7,7,9971,5,German,German,weiblich,22,1563032667094,9.2361,no,4,5,ratingScaleTask
628,<b>Bewegung</b>: Ein Objekt aus dem Weg treten,Sat Jul 13 2019 09:44:27 GMT-0600 (Nordamerikanische Inland-Normalzeit),72,6,eine perfekt klare Vorstellung,7,26,5,7,5,Ich verstehe den Satz nicht nicht.,5,motor,6,1563033221260,keine Vorstellung,English,21,6,,Abitur,"Stellen Sie sich vor, das Folgende <b>zu tun</b> und betrachten Sie sorgfältig die entstehende Vorstellung, wie sich Ihre <b>Körperteile bewegen und anfühlen</b>, um das Beschriebene <b>auszuführen</b>.<br />Bewerten Sie, wie lebhaft Sie sich Folgendes vorstellen können:",7,7,7034,5,German,German,weiblich,23,1563032667094,9.2361,no,4,5,ratingScaleTask
628,<b>Geruch</b> von: Neuem Leder,Sat Jul 13 2019 09:44:27 GMT-0600 (Nordamerikanische Inland-Normalzeit),72,6,eine perfekt klare Vorstellung,7,36,5,7,5,Ich verstehe den Satz nicht nicht.,5,olfactory,6,1563033221260,keine Vorstellung,English,21,2,,Abitur,"Stellen Sie sich den folgenden <b>Geruch</b> vor und betrachten Sie sorgfältig die entstehende <b>Geruchsvorstellung</b>.<br />Bewerten Sie, wie lebhaft Sie sich den Folgenden vorstellen können:",7,7,6777,5,German,German,weiblich,24,1563032667094,9.2361,no,4,5,ratingScaleTask
628,<b>Gefühl</b> von: Sand,Sat Jul 13 2019 09:44:27 GMT-0600 (Nordamerikanische Inland-Normalzeit),72,6,eine perfekt klare Vorstellung,7,17,5,7,5,Ich verstehe den Satz nicht nicht.,5,tactile,6,1563033221260,keine Vorstellung,English,21,6,,Abitur,"Stellen Sie sich das <b>Gefühl</b> des Folgenden <b>auf der Haut</b> vor und betrachten Sie sorgfältig die entstehende <b>taktile (fühlbare) Vorstellung</b>.<br />Bewerten Sie, wie lebhaft Sie sich Folgendes vorstellen können:",7,7,6999,5,German,German,weiblich,25,1563032667094,9.2361,no,4,5,ratingScaleTask
628,"<b>Geruch</b> von: Rindfleisch, das angebraten wird",Sat Jul 13 2019 09:44:27 GMT-0600 (Nordamerikanische Inland-Normalzeit),72,6,eine perfekt klare Vorstellung,7,34,5,7,5,Ich verstehe den Satz nicht nicht.,5,olfactory,6,1563033221260,keine Vorstellung,English,21,5,,Abitur,"Stellen Sie sich den folgenden <b>Geruch</b> vor und betrachten Sie sorgfältig die entstehende <b>Geruchsvorstellung</b>.<br />Bewerten Sie, wie lebhaft Sie sich den Folgenden vorstellen können",7,7,5590,5,German,German,weiblich,26,1563032667094,9.2361,no,4,5,ratingScaleTask
628,"<b>Bild</b> von: Der Sonne, wie sie am Horizont untergeht",Sat Jul 13 2019 09:44:27 GMT-0600 (Nordamerikanische Inland-Normalzeit),72,6,eine perfekt klare Vorstellung,7,11,5,7,5,Ich verstehe den Satz nicht nicht.,5,visual,6,1563033221260,keine Vorstellung,English,21,6,,Abitur,"Stellen Sie sich das folgende <b>Bild</b> vor und betrachten Sie sorgfältig die entstehende <b>visuelle Vorstellung</b>.<br />Bewerten Sie, wie lebhaft Sie sich Folgendes vorstellen können:",7,7,8103,5,German,German,weiblich,27,1563032667094,9.2361,no,4,5,ratingScaleTask
628,<b>Geruch</b>: bei dem Kochen von Kohl.,Sat Jul 13 2019 09:44:27 GMT-0600 (Nordamerikanische Inland-Normalzeit),72,6,eine perfekt klare Vorstellung,7,33,5,7,5,Ich verstehe den Satz nicht nicht.,5,olfactory,6,1563033221260,keine Vorstellung,English,21,2,,Abitur,"Stellen Sie sich den folgenden <b>Geruch</b> vor und betrachten Sie sorgfältig die entstehende <b>Geruchsvorstellung</b>.<br />Bewerten Sie, wie lebhaft Sie sich den Folgenden vorstellen können:",7,7,6613,5,German,German,weiblich,28,1563032667094,9.2361,no,4,5,ratingScaleTask
628,"<b>Bild</b> von: Seinem/Ihrem Gang, wie er/sie läuft, wie lang seine/ihre Schritte sind, etc.",Sat Jul 13 2019 09:44:27 GMT-0600 (Nordamerikanische Inland-Normalzeit),72,6,eine perfekt klare Vorstellung,7,9,5,7,5,Ich verstehe den Satz nicht nicht.,5,visual,6,1563033221260,keine Vorstellung,English,21,6,,Abitur,"Denken Sie an eine*n Verwandte*n oder eine*n Freund*in, den/die Sie regelmäßig <b>sehen</b>, und betrachten Sie sorgfältig die entstehende <b>visuelle Vorstellung</b>.<br />Bewerten Sie, wie lebhaft Sie sich Folgendes vorstellen können:",7,7,9381,5,German,German,weiblich,29,1563032667094,9.2361,no,4,5,ratingScaleTask
628,<b>Geräusch</b>: Des Pfeifens einer Lokomotive,Sat Jul 13 2019 09:44:27 GMT-0600 (Nordamerikanische Inland-Normalzeit),72,6,eine perfekt klare Vorstellung,7,12,5,7,5,Ich verstehe den Satz nicht nicht.,5,auditory,6,1563033221260,keine Vorstellung,English,21,3,,Abitur,"Stellen Sie sich das folgende <b>Geräusch</b> vor und betrachten Sie sorgfältig die entstehende <b>auditive Impression</b>.<br />Bewerten Sie, wie lebhaft Sie sich Folgendes Geräusch vorstellen können:",7,7,17859,5,German,German,weiblich,30,1563032667094,9.2361,no,4,5,ratingScaleTask
628,<b>Klang</b>: Des Miauens einer Katze,Sat Jul 13 2019 09:44:27 GMT-0600 (Nordamerikanische Inland-Normalzeit),72,6,eine perfekt klare Vorstellung,7,14,5,7,5,Ich verstehe den Satz nicht nicht.,5,auditory,6,1563033221260,keine Vorstellung,English,21,5,,Abitur,"Stellen Sie sich den folgenden <b>Klang</b> vor und betrachten Sie sorgfältig die entstehende <b>auditive Impression</b>.<br />Bewerten Sie, wie lebhaft Sie sich Folgendes vorstellen können:",7,7,2623,5,German,German,weiblich,31,1563032667094,9.2361,no,4,5,ratingScaleTask
628,<b>Bewegung</b>: Einen Kreis auf ein Blatt Papier malen,Sat Jul 13 2019 09:44:27 GMT-0600 (Nordamerikanische Inland-Normalzeit),72,6,eine perfekt klare Vorstellung,7,24,5,7,5,Ich verstehe den Satz nicht nicht.,5,motor,6,1563033221260,keine Vorstellung,English,21,7,,Abitur,"Stellen Sie sich vor, das Folgende <b>zu tun</b> und betrachten Sie sorgfältig die entstehende Vorstellung, wie sich Ihre <b>Körperteile bewegen und anfühlen</b>, um das Beschriebene <b>auszuführen</b>.<br />Bewerten Sie, wie lebhaft Sie sich Folgendes vorstellen können:",7,7,7349,5,German,German,weiblich,32,1563032667094,9.2361,no,4,5,ratingScaleTask
628,<b>Klang</b>: Eines hupenden Autos,Sat Jul 13 2019 09:44:27 GMT-0600 (Nordamerikanische Inland-Normalzeit),72,6,eine perfekt klare Vorstellung,7,13,5,7,5,Ich verstehe den Satz nicht nicht.,5,auditory,6,1563033221260,keine Vorstellung,English,21,3,,Abitur,"Stellen Sie sich den folgenden <b>Klang</b> vor und betrachten Sie sorgfältig die entstehende <b>auditive Impression</b>.<br />Bewerten Sie, wie lebhaft Sie sich Folgendes vorstellen können:",7,7,9421,5,German,German,weiblich,33,1563032667094,9.2361,no,4,5,ratingScaleTask
628,<b>Bewegung</b>: Über einen (kleinen) Bach springen,Sat Jul 13 2019 09:44:27 GMT-0600 (Nordamerikanische Inland-Normalzeit),72,6,eine perfekt klare Vorstellung,7,23,5,7,5,Ich verstehe den Satz nicht nicht.,5,motor,6,1563033221260,keine Vorstellung,English,21,7,,Abitur,"Stellen Sie sich, vor das Folgende <b>zu tun</b> und betrachten Sie sorgfältig die entstehende Vorstellung, wie sich <b>Ihre Körperteile bewegen und anfühlen</b>, um das Beschriebene <b>auszuführen</b>.<br />Bewerten Sie, wie lebhaft Sie sich Folgendes vorstellen können:",7,7,6965,5,German,German,weiblich,34,1563032667094,9.2361,no,4,5,ratingScaleTask
628,"<b>Bild</b> von seinen/ihren: Charakteristischen Haltungen von Kopf, Körper, etc.",Sat Jul 13 2019 09:44:27 GMT-0600 (Nordamerikanische Inland-Normalzeit),72,6,eine perfekt klare Vorstellung,7,8,5,7,5,Ich verstehe den Satz nicht nicht.,5,visual,6,1563033221260,keine Vorstellung,English,21,7,,Abitur,"Denken Sie an eine*n Verwandte*n oder eine*n Freund*in, den/die Sie regelmäßig <b>sehen</b>, und betrachten Sie sorgfältig die entstehende <b>visuelle Vorstellung</b>.<br />Bewerten Sie, wie lebhaft Sie sich Folgendes vorstellen können:",7,7,15751,5,German,German,weiblich,35,1563032667094,9.2361,no,4,5,ratingScaleTask
637,<b>image</b> of: A ball bouncing up and down,Sat Jul 13 2019 19:53:38 GMT+0200 (Mitteleuropäische Sommerzeit),72,6,perfectly clear,7,0,5,7,3,I don't understand the sentence.,5,visual,6,1563040807934,no image,English,24,6,,Graduated High School (Abitur),"Think of the following <b>image</b>, carefully considering the <b>visual image</b> that comes to your imagination.<br />Rate how vividly you can imagine this:",7,7,6477,6,German,English,female,1,1563040418157,6.496283333333333,no,6,6,ratingScaleTrial_eng
637,<b>Sensation of</b>: The feeling you had when hearing the school bell ringing,Sat Jul 13 2019 19:53:38 GMT+0200 (Mitteleuropäische Sommerzeit),72,6,perfectly clear,7,6,5,7,3,I don't understand the sentence.,5,organic,6,1563040807934,no image,English,24,2,,Graduated High School (Abitur),"Think of the following <b>sensation</b>, carefully considering the <b>image that comes to your imagination</b>.<br />Rate how vividly you can imagine this:",7,7,8999,6,German,English,female,2,1563040418157,6.496283333333333,no,6,6,ratingScaleTrial_eng
637,<b>'feeling'</b> of: The The tickle of a fly on your skin,Sat Jul 13 2019 19:53:38 GMT+0200 (Mitteleuropäische Sommerzeit),72,6,perfectly clear,7,2,5,7,3,I don't understand the sentence.,5,tactile,6,1563040807934,no image,English,24,7,,Graduated High School (Abitur),"Think of the following <b>'feeling'</b> or <b>touching the following</b>, carefully considering the <b>tactile image</b> that comes to your imagination.<br />Rate how vividly you can imagine this:",7,7,10119,6,German,English,female,3,1563040418157,6.496283333333333,no,6,6,ratingScaleTrial_eng
637,<b>smell</b> of: fresh brewed coffee,Sat Jul 13 2019 19:53:38 GMT+0200 (Mitteleuropäische Sommerzeit),72,6,perfectly clear,7,5,5,7,3,I don't understand the sentence.,5,olfactory,6,1563040807934,no image,English,24,6,,Graduated High School (Abitur),"Think of <b>smelling</b> the following, carefully considering the <b>olfactory image</b> that is produced.<br />Rate how vividly you can imagine this:",7,7,3378,6,German,English,female,4,1563040418157,6.496283333333333,no,6,6,ratingScaleTrial_eng
637,<b>Movement</b>: Sitting down on a chair,Sat Jul 13 2019 19:53:38 GMT+0200 (Mitteleuropäische Sommerzeit),72,6,perfectly clear,7,3,5,7,3,I don't understand the sentence.,5,motor,6,1563040807934,no image,English,24,4,,Graduated High School (Abitur),"Think of <b>performing the following act</b>, carefully considering the image that <b>forms in your mind of your body part(s) moving</b>.<br />Rate how vividly you can imagine this:",7,7,7696,6,German,English,female,5,1563040418157,6.496283333333333,no,6,6,ratingScaleTrial_eng
637,<b>sound</b> of: Rain falling on the street,Sat Jul 13 2019 19:53:38 GMT+0200 (Mitteleuropäische Sommerzeit),72,6,perfectly clear,7,1,5,7,3,I don't understand the sentence.,5,auditory,6,1563040807934,no image,English,24,3,,Graduated High School (Abitur),"Think of the following <b>sound</b>, carefully considering the <b>auditory</b> image that comes to your imagination.<br />Rate how vividly you can imagine this:",7,7,4999,6,German,English,female,6,1563040418157,6.496283333333333,no,6,6,ratingScaleTrial_eng
637,<b>Taste of</b>: Strawberrys,Sat Jul 13 2019 19:53:38 GMT+0200 (Mitteleuropäische Sommerzeit),72,6,perfectly clear,7,4,5,7,3,I don't understand the sentence.,5,gustatory,6,1563040807934,no image,English,24,3,,Graduated High School (Abitur),"Think of <b>tasting</b> the following, carefully considering the <b>gustatory image</b> that is produced.<br />Rate how vividly you can imagine this:",7,7,4712,6,German,English,female,7,1563040418157,6.496283333333333,no,6,6,ratingScaleTrial_eng
637,<b>Smell</b> of: Cooking cabbage,Sat Jul 13 2019 19:53:38 GMT+0200 (Mitteleuropäische Sommerzeit),72,6,perfectly clear,7,33,5,7,3,I don't understand the sentence.,5,olfactory,6,1563040807934,no image,English,24,1,,Graduated High School (Abitur),"Think of <b>smelling</b> the following, carefully considering the <b>olfactory image</b> that is produced.<br />Rate how vividly you can imagine the following:",7,7,3258,6,German,English,female,1,1563040418157,6.496283333333333,no,6,6,ratingScaleTask
637,<b>Image</b> of: The sun as it is sinking below the horizon,Sat Jul 13 2019 19:53:38 GMT+0200 (Mitteleuropäische Sommerzeit),72,6,perfectly clear,7,11,5,7,3,I don't understand the sentence.,5,visual,6,1563040807934,no image,English,24,7,,Graduated High School (Abitur),"Think of the following <b>image</b>, carefully considering the <b>visual image</b> that comes to your imagination.<br />Rate how vividly you can imagine the following:",7,7,3634,6,German,English,female,2,1563040418157,6.496283333333333,no,6,6,ratingScaleTask
637,<b>Movement</b> of: Running upstairs,Sat Jul 13 2019 19:53:38 GMT+0200 (Mitteleuropäische Sommerzeit),72,6,perfectly clear,7,22,5,7,3,I don't understand the sentence.,5,motor,6,1563040807934,no image,English,24,7,,Graduated High School (Abitur),"Think of <b>performing</b> the following <b>act</b>, carefully considering the image that forms in your mind of your <b>arms, legs, lips, etc.</b> performing this act.<br />Rate how vividly you can imagine the following:",7,7,2100,6,German,English,female,3,1563040418157,6.496283333333333,no,6,6,ratingScaleTask
637,<b>Feeling</b> of: The prick of a pin,Sat Jul 13 2019 19:53:38 GMT+0200 (Mitteleuropäische Sommerzeit),72,6,perfectly clear,7,20,5,7,3,I don't understand the sentence.,5,tactile,6,1563040807934,no image,English,24,1,,Graduated High School (Abitur),"Think of <b>'feeling' or touching</b> the following, carefully considering the <b>tactile image</b> that comes into your mind.<br />Rate how vividly you can imagine the following:",7,7,3402,6,German,English,female,4,1563040418157,6.496283333333333,no,6,6,ratingScaleTask
637,<b>Feeling</b> of: Fatigue,Sat Jul 13 2019 19:53:38 GMT+0200 (Mitteleuropäische Sommerzeit),72,6,perfectly clear,7,37,5,7,3,I don't understand the sentence.,5,organic,6,1563040807934,no image,English,24,5,,Graduated High School (Abitur),"Think of the following <b>sensation</b>, carefully considering the image that comes to your mind.<br />Rate how vividly you can imagine the following: ",7,7,4154,6,German,English,female,5,1563040418157,6.496283333333333,no,6,6,ratingScaleTask
637,<b>Sound</b> of: The meowing of a cat,Sat Jul 13 2019 19:53:38 GMT+0200 (Mitteleuropäische Sommerzeit),72,6,perfectly clear,7,14,5,7,3,I don't understand the sentence.,5,auditory,6,1563040807934,no image,English,24,5,,Graduated High School (Abitur),"Think of the following <b>sound</b>, carefully considering the <b>auditory image</b>, that comes to your imagination.<br />Rate how vividly you can imagine the following:",7,7,3757,6,German,English,female,6,1563040418157,6.496283333333333,no,6,6,ratingScaleTask
637,<b>Taste</b> of: Salt,Sat Jul 13 2019 19:53:38 GMT+0200 (Mitteleuropäische Sommerzeit),72,6,perfectly clear,7,27,5,7,3,I don't understand the sentence.,5,gustatory,6,1563040807934,no image,English,24,6,,Graduated High School (Abitur),"Think of <b>tasting</b> the following, carefully considering the <b>gustatory image</b> that is produced.<br />Rate how vividly you can imagine the following:",7,7,3240,6,German,English,female,7,1563040418157,6.496283333333333,no,6,6,ratingScaleTask
637,<b>Taste</b> of: Oranges,Sat Jul 13 2019 19:53:38 GMT+0200 (Mitteleuropäische Sommerzeit),72,6,perfectly clear,7,29,5,7,3,I don't understand the sentence.,5,gustatory,6,1563040807934,no image,English,24,3,,Graduated High School (Abitur),"Think of <b>tasting</b> the following, carefully considering the <b>gustatory image</b> that is produced.<br />Rate how vividly you can imagine the following:",7,7,3609,6,German,English,female,8,1563040418157,6.496283333333333,no,6,6,ratingScaleTask
637,<b>Movement</b> of: Kicking something out of your way,Sat Jul 13 2019 19:53:38 GMT+0200 (Mitteleuropäische Sommerzeit),72,6,perfectly clear,7,26,5,7,3,I don't understand the sentence.,5,motor,6,1563040807934,no image,English,24,7,,Graduated High School (Abitur),"Think of <b>performing</b> the following <b>act</b>, carefully considering the image that forms in your mind of your <b>arms, legs, lips, etc.</b> performing this act.<br />Rate how vividly you can imagine the following:",7,7,4349,6,German,English,female,9,1563040418157,6.496283333333333,no,6,6,ratingScaleTask
637,<b>Smell</b> of: New leather,Sat Jul 13 2019 19:53:38 GMT+0200 (Mitteleuropäische Sommerzeit),72,6,perfectly clear,7,36,5,7,3,I don't understand the sentence.,5,olfactory,6,1563040807934,no image,English,24,7,,Graduated High School (Abitur),"Think of <b>smelling</b> the following, carefully considering the <b>olfactory image</b> that is produced.<br />Rate how vividly you can imagine the following:",7,7,1921,6,German,English,female,10,1563040418157,6.496283333333333,no,6,6,ratingScaleTask
637,<b>Smell</b> of: A badly ventilated room,Sat Jul 13 2019 19:53:38 GMT+0200 (Mitteleuropäische Sommerzeit),72,6,perfectly clear,7,32,5,7,3,I don't understand the sentence.,5,olfactory,6,1563040807934,no image,English,24,5,,Graduated High School (Abitur),"Think of <b>smelling</b> the following, carefully considering the <b>olfactory image</b> that is produced.<br />Rate how vividly you can imagine the following:",7,7,4713,6,German,English,female,11,1563040418157,6.496283333333333,no,6,6,ratingScaleTask
637,<b>Movement</b> of: Reaching up to a high shelf,Sat Jul 13 2019 19:53:38 GMT+0200 (Mitteleuropäische Sommerzeit),72,6,perfectly clear,7,25,5,7,3,I don't understand the sentence.,5,motor,6,1563040807934,no image,English,24,6,,Graduated High School (Abitur),"Think of <b>performing</b> the following <b>act</b>, carefully considering the image that forms in your mind of your <b>arms, legs, lips, etc.</b> performing this act.<br />Rate how vividly you can imagine the following:",7,7,5254,6,German,English,female,12,1563040418157,6.496283333333333,no,6,6,ratingScaleTask
637,<b>Feeling</b> of: Sand,Sat Jul 13 2019 19:53:38 GMT+0200 (Mitteleuropäische Sommerzeit),72,6,perfectly clear,7,17,5,7,3,I don't understand the sentence.,5,tactile,6,1563040807934,no image,English,24,5,,Graduated High School (Abitur),"Think of <b>'feeling' or touching</b> the following, carefully considering the <b>tactile image</b> that comes into your mind.<br />Rate how vividly you can imagine the following:",7,7,9665,6,German,English,female,13,1563040418157,6.496283333333333,no,6,6,ratingScaleTask
637,<b>Sound</b> of: The clapping of hands in applause,Sat Jul 13 2019 19:53:38 GMT+0200 (Mitteleuropäische Sommerzeit),72,6,perfectly clear,7,16,5,7,3,I don't understand the sentence.,5,auditory,6,1563040807934,no image,English,24,6,,Graduated High School (Abitur),"Think of the following <b>sound</b>, carefully considering the <b>auditory image</b>, that comes to your imagination.<br />Rate how vividly you can imagine the following:",7,7,10958,6,German,English,female,14,1563040418157,6.496283333333333,no,6,6,ratingScaleTask
637,"<b>Image</b> of his/her: Characteristic poses of head, body, etc.",Sat Jul 13 2019 19:53:38 GMT+0200 (Mitteleuropäische Sommerzeit),72,6,perfectly clear,7,8,5,7,3,I don't understand the sentence.,5,visual,6,1563040807934,no image,English,24,2,,Graduated High School (Abitur),"Think of some relative or friend whom you frequently <b>see</b>, carefully considering the <b>visual image</b> that comes to your imagination.<br />Rate how vividly you can imagine the following:",7,7,9756,6,German,English,female,15,1563040418157,6.496283333333333,no,6,6,ratingScaleTask
637,<b>Smell</b> of: Fresh paint,Sat Jul 13 2019 19:53:38 GMT+0200 (Mitteleuropäische Sommerzeit),72,6,perfectly clear,7,35,5,7,3,I don't understand the sentence.,5,olfactory,6,1563040807934,no image,English,24,5,,Graduated High School (Abitur),"Think of <b>smelling</b> the following, carefully considering the <b>olfactory image</b> that is produced.<br />Rate how vividly you can imagine the following:",7,7,3891,6,German,English,female,16,1563040418157,6.496283333333333,no,6,6,ratingScaleTask
637,<b>Feeling</b> of: Fur,Sat Jul 13 2019 19:53:38 GMT+0200 (Mitteleuropäische Sommerzeit),72,6,perfectly clear,7,19,5,7,3,I don't understand the sentence.,5,tactile,6,1563040807934,no image,English,24,4,,Graduated High School (Abitur),"Think of <b>'feeling' or touching</b> the following, carefully considering the <b>tactile image</b> that comes into your mind.<br />Rate how vividly you can imagine the following:",7,7,2881,6,German,English,female,17,1563040418157,6.496283333333333,no,6,6,ratingScaleTask
637,<b>Sound</b> of: Escaping steam,Sat Jul 13 2019 19:53:38 GMT+0200 (Mitteleuropäische Sommerzeit),72,6,perfectly clear,7,15,5,7,3,I don't understand the sentence.,5,auditory,6,1563040807934,no image,English,24,3,,Graduated High School (Abitur),"Think of the following <b>sound</b>, carefully considering the <b>auditory image</b>, that comes to your imagination.<br />Rate how vividly you can imagine the following:",7,7,6562,6,German,English,female,18,1563040418157,6.496283333333333,no,6,6,ratingScaleTask
637,<b>Taste</b> of: Jelly,Sat Jul 13 2019 19:53:38 GMT+0200 (Mitteleuropäische Sommerzeit),72,6,perfectly clear,7,30,5,7,3,I don't understand the sentence.,5,gustatory,6,1563040807934,no image,English,24,2,,Graduated High School (Abitur),"Think of <b>tasting</b> the following, carefully considering the <b>gustatory image</b> that is produced.<br />Rate how vividly you can imagine the following:",7,7,3200,6,German,English,female,19,1563040418157,6.496283333333333,no,6,6,ratingScaleTask
637,<b>Feeling</b> of: Hunger,Sat Jul 13 2019 19:53:38 GMT+0200 (Mitteleuropäische Sommerzeit),72,6,perfectly clear,7,38,5,7,3,I don't understand the sentence.,5,organic,6,1563040807934,no image,English,24,7,,Graduated High School (Abitur),"Think of the following <b>sensation</b>, carefully considering the image that comes to your mind.<br />Rate how vividly you can imagine the following: ",7,7,2021,6,German,English,female,20,1563040418157,6.496283333333333,no,6,6,ratingScaleTask
637,<b>Feeling</b> of: The warmth of a tepid bath,Sat Jul 13 2019 19:53:38 GMT+0200 (Mitteleuropäische Sommerzeit),72,6,perfectly clear,7,21,5,7,3,I don't understand the sentence.,5,tactile,6,1563040807934,no image,English,24,5,,Graduated High School (Abitur),"Think of <b>'feeling' or touching</b> the following, carefully considering the <b>tactile image</b> that comes into your mind.<br />Rate how vividly you can imagine the following:",7,7,4642,6,German,English,female,21,1563040418157,6.496283333333333,no,6,6,ratingScaleTask
637,<b>Feeling</b> of: Linen,Sat Jul 13 2019 19:53:38 GMT+0200 (Mitteleuropäische Sommerzeit),72,6,perfectly clear,7,18,5,7,3,I don't understand the sentence.,5,tactile,6,1563040807934,no image,English,24,0,,Graduated High School (Abitur),"Think of <b>'feeling' or touching</b> the following, carefully considering the <b>tactile image</b> that comes into your mind.<br />Rate how vividly you can imagine the following:",7,7,2233,6,German,English,female,22,1563040418157,6.496283333333333,no,6,6,ratingScaleTask
637,<b>Sound</b> of: The whistle of a locomotiv,Sat Jul 13 2019 19:53:38 GMT+0200 (Mitteleuropäische Sommerzeit),72,6,perfectly clear,7,12,5,7,3,I don't understand the sentence.,5,auditory,6,1563040807934,no image,English,24,7,,Graduated High School (Abitur),"Think of the following <b>sound</b>, carefully considering the <b>auditory image</b>, that comes to your imagination.<br />Rate how vividly you can imagine the following:",7,7,6181,6,German,English,female,23,1563040418157,6.496283333333333,no,6,6,ratingScaleTask
637,<b>Movement</b> of: Drawing a circle on paper,Sat Jul 13 2019 19:53:38 GMT+0200 (Mitteleuropäische Sommerzeit),72,6,perfectly clear,7,24,5,7,3,I don't understand the sentence.,5,motor,6,1563040807934,no image,English,24,6,,Graduated High School (Abitur),"Think of <b>performing</b> the following <b>act</b>, carefully considering the image that forms in your mind of your <b>arms, legs, lips, etc.</b> performing this act.<br />Rate how vividly you can imagine the following:",7,7,8461,6,German,English,female,24,1563040418157,6.496283333333333,no,6,6,ratingScaleTask
637,"<b>Image</b> of his/her: Exact contour of face, head, shoulders and body",Sat Jul 13 2019 19:53:38 GMT+0200 (Mitteleuropäische Sommerzeit),72,6,perfectly clear,7,7,5,7,3,I don't understand the sentence.,5,visual,6,1563040807934,no image,English,24,5,,Graduated High School (Abitur),"Think of some relative or friend whom you frequently <b>see</b>, carefully considering the <b>visual image</b> that comes to your imagination.<br />Rate how vividly you can imagine the following:",7,7,9337,6,German,English,female,25,1563040418157,6.496283333333333,no,6,6,ratingScaleTask
637,<b>Feeling</b> of: A sore throat,Sat Jul 13 2019 19:53:38 GMT+0200 (Mitteleuropäische Sommerzeit),72,6,perfectly clear,7,39,5,7,3,I don't understand the sentence.,5,organic,6,1563040807934,no image,English,24,7,,Graduated High School (Abitur),"Think of the following <b>sensation</b>, carefully considering the image that comes to your mind.<br />Rate how vividly you can imagine the following: ",7,7,2836,6,German,English,female,26,1563040418157,6.496283333333333,no,6,6,ratingScaleTask
637,<b>Taste</b> of: Granulated (white) sugar,Sat Jul 13 2019 19:53:38 GMT+0200 (Mitteleuropäische Sommerzeit),72,6,perfectly clear,7,28,5,7,3,I don't understand the sentence.,5,gustatory,6,1563040807934,no image,English,24,4,,Graduated High School (Abitur),"Think of <b>tasting</b> the following, carefully considering the <b>gustatory image</b> that is produced.<br />Rate how vividly you can imagine the following:",7,7,6439,6,German,English,female,27,1563040418157,6.496283333333333,no,6,6,ratingScaleTask
637,<b>Taste</b> of: Your favorite soup,Sat Jul 13 2019 19:53:38 GMT+0200 (Mitteleuropäische Sommerzeit),72,6,perfectly clear,7,31,5,7,3,I don't understand the sentence.,5,gustatory,6,1563040807934,no image,English,24,7,,Graduated High School (Abitur),"Think of <b>tasting</b> the following, carefully considering the <b>gustatory image</b> that is produced.<br />Rate how vividly you can imagine the following:",7,7,6562,6,German,English,female,28,1563040418157,6.496283333333333,no,6,6,ratingScaleTask
637,<b>Sound</b> of: The horn of an automobile,Sat Jul 13 2019 19:53:38 GMT+0200 (Mitteleuropäische Sommerzeit),72,6,perfectly clear,7,13,5,7,3,I don't understand the sentence.,5,auditory,6,1563040807934,no image,English,24,2,,Graduated High School (Abitur),"Think of the following <b>sound</b>, carefully considering the <b>auditory image</b>, that comes to your imagination.<br />Rate how vividly you can imagine the following:",7,7,4106,6,German,English,female,29,1563040418157,6.496283333333333,no,6,6,ratingScaleTask
637,<b>Image</b> of: The different colors worn in their usual clothes,Sat Jul 13 2019 19:53:38 GMT+0200 (Mitteleuropäische Sommerzeit),72,6,perfectly clear,7,10,5,7,3,I don't understand the sentence.,5,visual,6,1563040807934,no image,English,24,0,,Graduated High School (Abitur),"Think of some relative or friend whom you frequently <b>see</b>, carefully considering the <b>visual image</b> that comes to your imagination.<br />Rate how vividly you can imagine the following:",7,7,9089,6,German,English,female,30,1563040418157,6.496283333333333,no,6,6,ratingScaleTask
637,<b>Smell</b> of: Roasting beef,Sat Jul 13 2019 19:53:38 GMT+0200 (Mitteleuropäische Sommerzeit),72,6,perfectly clear,7,34,5,7,3,I don't understand the sentence.,5,olfactory,6,1563040807934,no image,English,24,0,,Graduated High School (Abitur),"Think of <b>smelling</b> the following, carefully considering the <b>olfactory image</b> that is produced.<br />Rate how vividly you can imagine the following:",7,7,367,6,German,English,female,31,1563040418157,6.496283333333333,no,6,6,ratingScaleTask
637,<b>Feeling</b> of: Feeling sick after eating a lot,Sat Jul 13 2019 19:53:38 GMT+0200 (Mitteleuropäische Sommerzeit),72,6,perfectly clear,7,41,5,7,3,I don't understand the sentence.,5,organic,6,1563040807934,no image,English,24,7,,Graduated High School (Abitur),"Think of the following <b>sensation</b>, carefully considering the image that comes to your mind.<br />Rate how vividly you can imagine the following: ",7,7,2841,6,German,English,female,32,1563040418157,6.496283333333333,no,6,6,ratingScaleTask
637,<b>Movement</b> of: Jumping across a stream,Sat Jul 13 2019 19:53:38 GMT+0200 (Mitteleuropäische Sommerzeit),72,6,perfectly clear,7,23,5,7,3,I don't understand the sentence.,5,motor,6,1563040807934,no image,English,24,6,,Graduated High School (Abitur),"Think of <b>performing</b> the following <b>act</b>, carefully considering the image that forms in your mind of your <b>arms, legs, lips, etc.</b> performing this act.<br />Rate how vividly you can imagine the following:",7,7,4857,6,German,English,female,33,1563040418157,6.496283333333333,no,6,6,ratingScaleTask
637,"<b>Image</b> of his/her: The precise gait, length of step, etc. in walking",Sat Jul 13 2019 19:53:38 GMT+0200 (Mitteleuropäische Sommerzeit),72,6,perfectly clear,7,9,5,7,3,I don't understand the sentence.,5,visual,6,1563040807934,no image,English,24,5,,Graduated High School (Abitur),"Think of some relative or friend whom you frequently <b>see</b>, carefully considering the <b>visual image</b> that comes to your imagination.<br />Rate how vividly you can imagine the following:",7,7,8313,6,German,English,female,34,1563040418157,6.496283333333333,no,6,6,ratingScaleTask
637,<b>Feeling</b> of: Drowsiness,Sat Jul 13 2019 19:53:38 GMT+0200 (Mitteleuropäische Sommerzeit),72,6,perfectly clear,7,40,5,7,3,I don't understand the sentence.,5,organic,6,1563040807934,no image,English,24,0,,Graduated High School (Abitur),"Think of the following <b>sensation</b>, carefully considering the image that comes to your mind.<br />Rate how vividly you can imagine the following: ",7,7,3571,6,German,English,female,35,1563040418157,6.496283333333333,no,6,6,ratingScaleTask
651,<b>Sensation of</b>: The feeling you had when hearing the school bell ringing,Sat Jul 13 2019 23:20:22 GMT+0200 (CEST),72,5,perfectly clear,7,6,3,7,2,I don't understand the sentence.,2,organic,6,1563053474452,no image,German,23,6,,Higher Degree,"Think of the following <b>sensation</b>, carefully considering the <b>image that comes to your imagination</b>.<br />Rate how vividly you can imagine this:",7,6,48677,5,German,English,male,1,1563052822635,10.863616666666667,no,5,5,ratingScaleTrial_eng
651,<b>Taste of</b>: Strawberrys,Sat Jul 13 2019 23:20:22 GMT+0200 (CEST),72,5,perfectly clear,7,4,3,7,2,I don't understand the sentence.,2,gustatory,6,1563053474452,no image,German,23,3,,Higher Degree,"Think of <b>tasting</b> the following, carefully considering the <b>gustatory image</b> that is produced.<br />Rate how vividly you can imagine this:",7,6,20437,5,German,English,male,2,1563052822635,10.863616666666667,no,5,5,ratingScaleTrial_eng
651,<b>'feeling'</b> of: The The tickle of a fly on your skin,Sat Jul 13 2019 23:20:22 GMT+0200 (CEST),72,5,perfectly clear,7,2,3,7,2,I don't understand the sentence.,2,tactile,6,1563053474452,no image,German,23,6,,Higher Degree,"Think of the following <b>'feeling'</b> or <b>touching the following</b>, carefully considering the <b>tactile image</b> that comes to your imagination.<br />Rate how vividly you can imagine this:",7,6,19248,5,German,English,male,3,1563052822635,10.863616666666667,no,5,5,ratingScaleTrial_eng
651,<b>smell</b> of: fresh brewed coffee,Sat Jul 13 2019 23:20:22 GMT+0200 (CEST),72,5,perfectly clear,7,5,3,7,2,I don't understand the sentence.,2,olfactory,6,1563053474452,no image,German,23,7,,Higher Degree,"Think of <b>smelling</b> the following, carefully considering the <b>olfactory image</b> that is produced.<br />Rate how vividly you can imagine this:",7,6,7181,5,German,English,male,4,1563052822635,10.863616666666667,no,5,5,ratingScaleTrial_eng
651,<b>sound</b> of: Rain falling on the street,Sat Jul 13 2019 23:20:22 GMT+0200 (CEST),72,5,perfectly clear,7,1,3,7,2,I don't understand the sentence.,2,auditory,6,1563053474452,no image,German,23,7,,Higher Degree,"Think of the following <b>sound</b>, carefully considering the <b>auditory</b> image that comes to your imagination.<br />Rate how vividly you can imagine this:",7,6,4031,5,German,English,male,5,1563052822635,10.863616666666667,no,5,5,ratingScaleTrial_eng
651,<b>Movement</b>: Sitting down on a chair,Sat Jul 13 2019 23:20:22 GMT+0200 (CEST),72,5,perfectly clear,7,3,3,7,2,I don't understand the sentence.,2,motor,6,1563053474452,no image,German,23,6,,Higher Degree,"Think of <b>performing the following act</b>, carefully considering the image that <b>forms in your mind of your body part(s) moving</b>.<br />Rate how vividly you can imagine this:",7,6,9982,5,German,English,male,6,1563052822635,10.863616666666667,no,5,5,ratingScaleTrial_eng
651,<b>image</b> of: A ball bouncing up and down,Sat Jul 13 2019 23:20:22 GMT+0200 (CEST),72,5,perfectly clear,7,0,3,7,2,I don't understand the sentence.,2,visual,6,1563053474452,no image,German,23,5,,Higher Degree,"Think of the following <b>image</b>, carefully considering the <b>visual image</b> that comes to your imagination.<br />Rate how vividly you can imagine this:",7,6,13013,5,German,English,male,7,1563052822635,10.863616666666667,no,5,5,ratingScaleTrial_eng
651,<b>Feeling</b> of: Fatigue,Sat Jul 13 2019 23:20:22 GMT+0200 (CEST),72,5,perfectly clear,7,37,3,7,2,I don't understand the sentence.,2,organic,6,1563053474452,no image,German,23,5,,Higher Degree,"Think of the following <b>sensation</b>, carefully considering the image that comes to your mind.<br />Rate how vividly you can imagine the following: ",7,6,12365,5,German,English,male,1,1563052822635,10.863616666666667,no,5,5,ratingScaleTask
651,<b>Feeling</b> of: The warmth of a tepid bath,Sat Jul 13 2019 23:20:22 GMT+0200 (CEST),72,5,perfectly clear,7,21,3,7,2,I don't understand the sentence.,2,tactile,6,1563053474452,no image,German,23,6,,Higher Degree,"Think of <b>'feeling' or touching</b> the following, carefully considering the <b>tactile image</b> that comes into your mind.<br />Rate how vividly you can imagine the following:",7,6,5778,5,German,English,male,2,1563052822635,10.863616666666667,no,5,5,ratingScaleTask
651,<b>Feeling</b> of: Feeling sick after eating a lot,Sat Jul 13 2019 23:20:22 GMT+0200 (CEST),72,5,perfectly clear,7,41,3,7,2,I don't understand the sentence.,2,organic,6,1563053474452,no image,German,23,7,,Higher Degree,"Think of the following <b>sensation</b>, carefully considering the image that comes to your mind.<br />Rate how vividly you can imagine the following: ",7,6,6201,5,German,English,male,3,1563052822635,10.863616666666667,no,5,5,ratingScaleTask
651,<b>Image</b> of: The sun as it is sinking below the horizon,Sat Jul 13 2019 23:20:22 GMT+0200 (CEST),72,5,perfectly clear,7,11,3,7,2,I don't understand the sentence.,2,visual,6,1563053474452,no image,German,23,5,,Higher Degree,"Think of the following <b>image</b>, carefully considering the <b>visual image</b> that comes to your imagination.<br />Rate how vividly you can imagine the following:",7,6,8996,5,German,English,male,4,1563052822635,10.863616666666667,no,5,5,ratingScaleTask
651,<b>Feeling</b> of: Drowsiness,Sat Jul 13 2019 23:20:22 GMT+0200 (CEST),72,5,perfectly clear,7,40,3,7,2,I don't understand the sentence.,2,organic,6,1563053474452,no image,German,23,5,,Higher Degree,"Think of the following <b>sensation</b>, carefully considering the image that comes to your mind.<br />Rate how vividly you can imagine the following: ",7,6,5327,5,German,English,male,5,1563052822635,10.863616666666667,no,5,5,ratingScaleTask
651,"<b>Image</b> of his/her: Exact contour of face, head, shoulders and body",Sat Jul 13 2019 23:20:22 GMT+0200 (CEST),72,5,perfectly clear,7,7,3,7,2,I don't understand the sentence.,2,visual,6,1563053474452,no image,German,23,6,,Higher Degree,"Think of some relative or friend whom you frequently <b>see</b>, carefully considering the <b>visual image</b> that comes to your imagination.<br />Rate how vividly you can imagine the following:",7,6,12565,5,German,English,male,6,1563052822635,10.863616666666667,no,5,5,ratingScaleTask
651,<b>Movement</b> of: Drawing a circle on paper,Sat Jul 13 2019 23:20:22 GMT+0200 (CEST),72,5,perfectly clear,7,24,3,7,2,I don't understand the sentence.,2,motor,6,1563053474452,no image,German,23,6,,Higher Degree,"Think of <b>performing</b> the following <b>act</b>, carefully considering the image that forms in your mind of your <b>arms, legs, lips, etc.</b> performing this act.<br />Rate how vividly you can imagine the following:",7,6,23070,5,German,English,male,7,1563052822635,10.863616666666667,no,5,5,ratingScaleTask
