submission_id,question,startDate,experiment_id,listening_foreign,optionRight,writing_native,id,listening_time,reading_native,speaking_time,button_under,reading_time,type,reading_foreign,endTime,optionLeft,foreign_language,age,response,comments,education,QUD,listening_native,speaking_native,RT,speaking_foreign,native_language,language,gender,trial_number,startTime,timeSpent,foreign_dominance,learning_time,writing_foreign,trial_name
436,"<b>Bild</b>: Eines Balls, der auf und ab hüpft",Tue Jul 09 2019 13:43:07 GMT+0200 (Mitteleuropäische Sommerzeit),72,4,eine perfekt klare Vorstellung,6,0,2,6,1,Ich verstehe den Satz nicht nicht.,3,visual,5,1562673243157,keine Vorstellung,English,23,7,,Abitur,"Stellen Sie sich das folgende <b>Bild</b> vor und betrachten Sie sorgfältig die entstehende <b>visuelle Vorstellung</b>.<br />Bewerten Sie, wie lebhaft Sie sich Folgendes vorstellen können:",5,6,8126,5,German,German,weiblich,1,1562672587733,10.923733333333333,no,6,6,ratingScaleTrial_ger
436,<b>Klang / Geräusch</b> von: Auf die Straße fallender Regen,Tue Jul 09 2019 13:43:07 GMT+0200 (Mitteleuropäische Sommerzeit),72,4,eine perfekt klare Vorstellung,6,1,2,6,1,Ich verstehe den Satz nicht nicht.,3,auditory,5,1562673243157,keine Vorstellung,English,23,3,,Abitur,"Stellen Sie sich den folgenden <b>Klang</b> bzw. das folgende <b>Geräusch</b> vor und betrachten Sie sorgfältig die entstehende <b>auditive Vorstellung</b>.<br />Bewerten Sie, wie lebhaft Sie sich Folgendes vorstellen können:",5,6,8006,5,German,German,weiblich,2,1562672587733,10.923733333333333,no,6,6,ratingScaleTrial_ger
436,"<b>Gefühl</b>: das Sie hatten, wenn die Schulklingel läutete",Tue Jul 09 2019 13:43:07 GMT+0200 (Mitteleuropäische Sommerzeit),72,4,eine perfekt klare Vorstellung,6,6,2,6,1,Ich verstehe den Satz nicht nicht.,3,organic,5,1562673243157,keine Vorstellung,English,23,4,,Abitur,"Stellen Sie sich das folgende <b>Gefühl</b> vor und begutachten Sie genau die <b>Vorstellung, welche in Ihre Gedanken dazu entsteht</b>.<br />Bewerten Sie, wie lebhaft Sie sich Folgendes vorstellen können:",5,6,11098,5,German,German,weiblich,3,1562672587733,10.923733333333333,no,6,6,ratingScaleTrial_ger
436,<b>Geschmack</b> von: Erdbeeren,Tue Jul 09 2019 13:43:07 GMT+0200 (Mitteleuropäische Sommerzeit),72,4,eine perfekt klare Vorstellung,6,4,2,6,1,Ich verstehe den Satz nicht nicht.,3,gustatory,5,1562673243157,keine Vorstellung,English,23,2,,Abitur,"Stellen Sie sich den folgenden <b>Geschmack</b> vor und betrachten Sie sorgfältig die entstehende <b>geschmackliche Vorstellung</b>.<br />Bewerten Sie, wie lebhaft Sie sich Folgendes vorstellen können:",5,6,9045,5,German,German,weiblich,4,1562672587733,10.923733333333333,no,6,6,ratingScaleTrial_ger
436,<b>Geruch</b> von: frisch gebrühtem Kaffee,Tue Jul 09 2019 13:43:07 GMT+0200 (Mitteleuropäische Sommerzeit),72,4,eine perfekt klare Vorstellung,6,5,2,6,1,Ich verstehe den Satz nicht nicht.,3,olfactory,5,1562673243157,keine Vorstellung,English,23,7,,Abitur,"Stellen Sie sich den folgenden <b>Geruch</b> vor und betrachten Sie sorgfältig die entstehende <b>Geruchsvorstellung</b>.<br />Bewerten Sie, wie lebhaft Sie sich Folgendes vorstellen können:",5,6,2517,5,German,German,weiblich,5,1562672587733,10.923733333333333,no,6,6,ratingScaleTrial_ger
436,<b>Gefühl</b>: Das Kitzeln einer Fliege auf der Haut,Tue Jul 09 2019 13:43:07 GMT+0200 (Mitteleuropäische Sommerzeit),72,4,eine perfekt klare Vorstellung,6,2,2,6,1,Ich verstehe den Satz nicht nicht.,3,tactile,5,1562673243157,keine Vorstellung,English,23,6,,Abitur,"Stellen Sie sich das <b>Gefühl</b> oder die <b>Berührung</b> des Folgenden vor und betrachten Sie sorgfältig die entstehende <b>taktile (fühlbare) Vorstellung</b>.<br />Bewerten Sie, wie lebhaft Sie sich Folgendes vorstellen können:",5,6,5728,5,German,German,weiblich,6,1562672587733,10.923733333333333,no,6,6,ratingScaleTrial_ger
436,<b>Bewegung</b>: Das Hinsetzen auf einen Stuhl,Tue Jul 09 2019 13:43:07 GMT+0200 (Mitteleuropäische Sommerzeit),72,4,eine perfekt klare Vorstellung,6,3,2,6,1,Ich verstehe den Satz nicht nicht.,3,motor,5,1562673243157,keine Vorstellung,English,23,6,,Abitur,"Stellen Sie sich vor, das Folgende <b>zu tun</b> und betrachten Sie sorgfältig die entstehende Vorstellung, wie sich Ihre <b>Körperteile bewegen und anfühlen</b>, um das Beschriebene <b>auszuführen</b>.<br />Bewerten Sie, wie lebhaft Sie sich Folgendes vorstellen können:",5,6,5972,5,German,German,weiblich,7,1562672587733,10.923733333333333,no,6,6,ratingScaleTrial_ger
436,"<b>Bild</b> von seinen/ihren: Charakteristischen Haltungen von Kopf, Körper, etc.",Tue Jul 09 2019 13:43:07 GMT+0200 (Mitteleuropäische Sommerzeit),72,4,eine perfekt klare Vorstellung,6,8,2,6,1,Ich verstehe den Satz nicht nicht.,3,visual,5,1562673243157,keine Vorstellung,English,23,5,,Abitur,"Denken Sie an eine*n Verwandte*n oder eine*n Freund*in, den/die Sie regelmäßig <b>sehen</b>, und betrachten Sie sorgfältig die entstehende <b>visuelle Vorstellung</b>.<br />Bewerten Sie, wie lebhaft Sie sich Folgendes vorstellen können:",5,6,18559,5,German,German,weiblich,1,1562672587733,10.923733333333333,no,6,6,ratingScaleTask
436,<b>Gefühl</b>: Eines schmerzend trockenen Halses,Tue Jul 09 2019 13:43:07 GMT+0200 (Mitteleuropäische Sommerzeit),72,4,eine perfekt klare Vorstellung,6,39,2,6,1,Ich verstehe den Satz nicht nicht.,3,organic,5,1562673243157,keine Vorstellung,English,23,5,,Abitur,"Stellen Sie sich das folgende <b>Gefühl</b> vor und begutachten Sie die genaue <b>Impression dieses Gefühles</b>, welches in Ihre Gedanken dazu kommt.<br />Bewerten Sie, wie lebhaft Sie sich das Folgende vorstellen können:",5,6,18900,5,German,German,weiblich,2,1562672587733,10.923733333333333,no,6,6,ratingScaleTask
436,"<b>Bild</b> von: Seinem/Ihrem Gang, wie er/sie läuft, wie lang seine/ihre Schritte sind, etc.",Tue Jul 09 2019 13:43:07 GMT+0200 (Mitteleuropäische Sommerzeit),72,4,eine perfekt klare Vorstellung,6,9,2,6,1,Ich verstehe den Satz nicht nicht.,3,visual,5,1562673243157,keine Vorstellung,English,23,5,,Abitur,"Denken Sie an eine*n Verwandte*n oder eine*n Freund*in, den/die Sie regelmäßig <b>sehen</b>, und betrachten Sie sorgfältig die entstehende <b>visuelle Vorstellung</b>.<br />Bewerten Sie, wie lebhaft Sie sich Folgendes vorstellen können:",5,6,18295,5,German,German,weiblich,3,1562672587733,10.923733333333333,no,6,6,ratingScaleTask
436,<b>Klang</b>: des Klatschens von Händen beim Applaudieren,Tue Jul 09 2019 13:43:07 GMT+0200 (Mitteleuropäische Sommerzeit),72,4,eine perfekt klare Vorstellung,6,16,2,6,1,Ich verstehe den Satz nicht nicht.,3,auditory,5,1562673243157,keine Vorstellung,English,23,6,,Abitur,"Stellen Sie sich den folgenden <b>Klang</b> vor und betrachten Sie sorgfältig die entstehende <b>auditive Impression</b>.<br />Bewerten Sie, wie lebhaft Sie sich Folgendes vorstellen können:",5,6,9911,5,German,German,weiblich,4,1562672587733,10.923733333333333,no,6,6,ratingScaleTask
436,"<b>Bild</b> von: Der Sonne, wie sie am Horizont untergeht",Tue Jul 09 2019 13:43:07 GMT+0200 (Mitteleuropäische Sommerzeit),72,4,eine perfekt klare Vorstellung,6,11,2,6,1,Ich verstehe den Satz nicht nicht.,3,visual,5,1562673243157,keine Vorstellung,English,23,7,,Abitur,"Stellen Sie sich das folgende <b>Bild</b> vor und betrachten Sie sorgfältig die entstehende <b>visuelle Vorstellung</b>.<br />Bewerten Sie, wie lebhaft Sie sich Folgendes vorstellen können:",5,6,8242,5,German,German,weiblich,5,1562672587733,10.923733333333333,no,6,6,ratingScaleTask
436,<b>Bewegung</b>: Einen Kreis auf ein Blatt Papier malen,Tue Jul 09 2019 13:43:07 GMT+0200 (Mitteleuropäische Sommerzeit),72,4,eine perfekt klare Vorstellung,6,24,2,6,1,Ich verstehe den Satz nicht nicht.,3,motor,5,1562673243157,keine Vorstellung,English,23,4,,Abitur,"Stellen Sie sich vor, das Folgende <b>zu tun</b> und betrachten Sie sorgfältig die entstehende Vorstellung, wie sich Ihre <b>Körperteile bewegen und anfühlen</b>, um das Beschriebene <b>auszuführen</b>.<br />Bewerten Sie, wie lebhaft Sie sich Folgendes vorstellen können:",5,6,8632,5,German,German,weiblich,6,1562672587733,10.923733333333333,no,6,6,ratingScaleTask
436,<b>Geschmack</b> von: Marmelade,Tue Jul 09 2019 13:43:07 GMT+0200 (Mitteleuropäische Sommerzeit),72,4,eine perfekt klare Vorstellung,6,30,2,6,1,Ich verstehe den Satz nicht nicht.,3,gustatory,5,1562673243157,keine Vorstellung,English,23,2,,Abitur,"Stellen Sie sich den folgenden <b>Geschmack</b> vor und betrachten Sie sorgfältig die entstehende <b>geschmackliche Vorstellung</b>.<br />Bewerten Sie, wie lebhaft Sie sich den Folgenden vorstellen können:",5,6,6697,5,German,German,weiblich,7,1562672587733,10.923733333333333,no,6,6,ratingScaleTask
436,<b>Klang</b>: Eines hupenden Autos,Tue Jul 09 2019 13:43:07 GMT+0200 (Mitteleuropäische Sommerzeit),72,4,eine perfekt klare Vorstellung,6,13,2,6,1,Ich verstehe den Satz nicht nicht.,3,auditory,5,1562673243157,keine Vorstellung,English,23,6,,Abitur,"Stellen Sie sich den folgenden <b>Klang</b> vor und betrachten Sie sorgfältig die entstehende <b>auditive Impression</b>.<br />Bewerten Sie, wie lebhaft Sie sich Folgendes vorstellen können:",5,6,8634,5,German,German,weiblich,8,1562672587733,10.923733333333333,no,6,6,ratingScaleTask
436,<b>Geruch</b> von: Frischer Farbe,Tue Jul 09 2019 13:43:07 GMT+0200 (Mitteleuropäische Sommerzeit),72,4,eine perfekt klare Vorstellung,6,35,2,6,1,Ich verstehe den Satz nicht nicht.,3,olfactory,5,1562673243157,keine Vorstellung,English,23,2,,Abitur,"Stellen Sie sich den folgenden <b>Geruch</b> vor und betrachten Sie sorgfältig die entstehende <b>Geruchsvorstellung</b>.<br />Bewerten Sie, wie lebhaft Sie sich den Folgenden vorstellen können:",5,6,10906,5,German,German,weiblich,9,1562672587733,10.923733333333333,no,6,6,ratingScaleTask
436,<b>Bewegung</b>: Eine Treppe hoch rennen,Tue Jul 09 2019 13:43:07 GMT+0200 (Mitteleuropäische Sommerzeit),72,4,eine perfekt klare Vorstellung,6,22,2,6,1,Ich verstehe den Satz nicht nicht.,3,motor,5,1562673243157,keine Vorstellung,English,23,3,,Abitur,"Stellen Sie sich vor, das Folgende <b>zu tun</b> und betrachten Sie sorgfältig die entstehende Vorstellung, wie sich Ihre <b>Körperteile bewegen und anfühlen</b>, um das Beschriebene <b>auszuführen</b>.<br />Bewerten Sie, wie lebhaft Sie sich Folgendes vorstellen können:",5,6,6567,5,German,German,weiblich,10,1562672587733,10.923733333333333,no,6,6,ratingScaleTask
436,<b>Geschmack</b> von: Salz,Tue Jul 09 2019 13:43:07 GMT+0200 (Mitteleuropäische Sommerzeit),72,4,eine perfekt klare Vorstellung,6,27,2,6,1,Ich verstehe den Satz nicht nicht.,3,gustatory,5,1562673243157,keine Vorstellung,English,23,6,,Abitur,"Stellen Sie sich den folgenden <b>Geschmack</b> vor und betrachten Sie sorgfältig die entstehende <b>geschmackliche Vorstellung</b>.<br />Bewerten Sie, wie lebhaft Sie sich den Folgenden vorstellen können:",5,6,7798,5,German,German,weiblich,11,1562672587733,10.923733333333333,no,6,6,ratingScaleTask
436,"<b>Aussehen</b> von seiner/ihrer: Genauen Kontur des Gesichtes, Kopf, Schultern und Körper",Tue Jul 09 2019 13:43:07 GMT+0200 (Mitteleuropäische Sommerzeit),72,4,eine perfekt klare Vorstellung,6,7,2,6,1,Ich verstehe den Satz nicht nicht.,3,visual,5,1562673243157,keine Vorstellung,English,23,5,,Abitur,"Denken Sie an eine*n Verwandte*n oder eine*n Freund*in, den/die Sie regelmäßig <b>sehen</b>, und betrachten Sie sorgfältig die entstehende <b>visuelle Vorstellung</b>.<br />Bewerten Sie, wie lebhaft Sie sich Folgendes vorstellen können:",5,6,128427,5,German,German,weiblich,12,1562672587733,10.923733333333333,no,6,6,ratingScaleTask
436,<b>Gefühl</b> von: Schläfrigkeit,Tue Jul 09 2019 13:43:07 GMT+0200 (Mitteleuropäische Sommerzeit),72,4,eine perfekt klare Vorstellung,6,40,2,6,1,Ich verstehe den Satz nicht nicht.,3,organic,5,1562673243157,keine Vorstellung,English,23,7,,Abitur,"Stellen Sie sich das folgende <b>Gefühl</b> vor und begutachten Sie die genaue <b>Impression dieses Gefühles</b>, welches in Ihre Gedanken dazu kommt.<br />Bewerten Sie, wie lebhaft Sie sich das Folgende vorstellen können:",5,6,4947,5,German,German,weiblich,13,1562672587733,10.923733333333333,no,6,6,ratingScaleTask
436,<b>Gefühl</b> von: Ermüdung,Tue Jul 09 2019 13:43:07 GMT+0200 (Mitteleuropäische Sommerzeit),72,4,eine perfekt klare Vorstellung,6,37,2,6,1,Ich verstehe den Satz nicht nicht.,3,organic,5,1562673243157,keine Vorstellung,English,23,6,,Abitur,"Stellen Sie sich das folgende <b>Gefühl</b> vor und begutachten Sie die genaue <b>Impression dieses Gefühles</b>, welches in Ihre Gedanken dazu kommt.<br />Bewerten Sie, wie lebhaft Sie sich das Folgende vorstellen können:",5,6,6973,5,German,German,weiblich,14,1562672587733,10.923733333333333,no,6,6,ratingScaleTask
436,<b>Gefühl</b> vom: Piksen einer Stecknadel,Tue Jul 09 2019 13:43:07 GMT+0200 (Mitteleuropäische Sommerzeit),72,4,eine perfekt klare Vorstellung,6,20,2,6,1,Ich verstehe den Satz nicht nicht.,3,tactile,5,1562673243157,keine Vorstellung,English,23,6,,Abitur,"Stellen Sie sich das <b>Gefühl</b> des Folgenden <b>auf der Haut</b> vor und betrachten Sie sorgfältig die entstehende <b>taktile (fühlbare) Vorstellung</b>.<br />Bewerten Sie, wie lebhaft Sie sich Folgendes vorstellen können:",5,6,14093,5,German,German,weiblich,15,1562672587733,10.923733333333333,no,6,6,ratingScaleTask
436,<b>Klang</b>: Des Miauens einer Katze,Tue Jul 09 2019 13:43:07 GMT+0200 (Mitteleuropäische Sommerzeit),72,4,eine perfekt klare Vorstellung,6,14,2,6,1,Ich verstehe den Satz nicht nicht.,3,auditory,5,1562673243157,keine Vorstellung,English,23,5,,Abitur,"Stellen Sie sich den folgenden <b>Klang</b> vor und betrachten Sie sorgfältig die entstehende <b>auditive Impression</b>.<br />Bewerten Sie, wie lebhaft Sie sich Folgendes vorstellen können:",5,6,12733,5,German,German,weiblich,16,1562672587733,10.923733333333333,no,6,6,ratingScaleTask
436,<b>Geschmack</b> von: (weißem) Zucker,Tue Jul 09 2019 13:43:07 GMT+0200 (Mitteleuropäische Sommerzeit),72,4,eine perfekt klare Vorstellung,6,28,2,6,1,Ich verstehe den Satz nicht nicht.,3,gustatory,5,1562673243157,keine Vorstellung,English,23,4,,Abitur,"Stellen Sie sich den folgenden <b>Geschmack</b> vor und betrachten Sie sorgfältig die entstehende <b>geschmackliche Vorstellung</b>.<br />Bewerten Sie, wie lebhaft Sie sich den Folgenden vorstellen können:",5,6,12261,5,German,German,weiblich,17,1562672587733,10.923733333333333,no,6,6,ratingScaleTask
436,"<b>Gefühl</b> von: Das Unwohlsein, nachdem man zu viel gegessen hat.",Tue Jul 09 2019 13:43:07 GMT+0200 (Mitteleuropäische Sommerzeit),72,4,eine perfekt klare Vorstellung,6,41,2,6,1,Ich verstehe den Satz nicht nicht.,3,organic,5,1562673243157,keine Vorstellung,English,23,6,,Abitur,"Stellen Sie sich das folgende <b>Gefühl</b> vor und begutachten Sie die genaue <b>Impression dieses Gefühles</b>, welches in Ihre Gedanken dazu kommt.<br />Bewerten Sie, wie lebhaft Sie sich das Folgende vorstellen können:",5,6,7162,5,German,German,weiblich,18,1562672587733,10.923733333333333,no,6,6,ratingScaleTask
436,<b>Bewegung</b>: Ein Objekt aus dem Weg treten,Tue Jul 09 2019 13:43:07 GMT+0200 (Mitteleuropäische Sommerzeit),72,4,eine perfekt klare Vorstellung,6,26,2,6,1,Ich verstehe den Satz nicht nicht.,3,motor,5,1562673243157,keine Vorstellung,English,23,3,,Abitur,"Stellen Sie sich vor, das Folgende <b>zu tun</b> und betrachten Sie sorgfältig die entstehende Vorstellung, wie sich Ihre <b>Körperteile bewegen und anfühlen</b>, um das Beschriebene <b>auszuführen</b>.<br />Bewerten Sie, wie lebhaft Sie sich Folgendes vorstellen können:",5,6,5597,5,German,German,weiblich,19,1562672587733,10.923733333333333,no,6,6,ratingScaleTask
436,<b>Gefühl</b> von: Fell,Tue Jul 09 2019 13:43:07 GMT+0200 (Mitteleuropäische Sommerzeit),72,4,eine perfekt klare Vorstellung,6,19,2,6,1,Ich verstehe den Satz nicht nicht.,3,tactile,5,1562673243157,keine Vorstellung,English,23,7,,Abitur,"Stellen Sie sich das <b>Gefühl</b> des Folgenden <b>auf der Haut</b> vor und betrachten Sie sorgfältig die entstehende <b>taktile (fühlbare) Vorstellung</b>.<br />Bewerten Sie, wie lebhaft Sie sich Folgendes vorstellen können:",5,6,7830,5,German,German,weiblich,20,1562672587733,10.923733333333333,no,6,6,ratingScaleTask
436,<b>Geschmack</b> von: Orangen,Tue Jul 09 2019 13:43:07 GMT+0200 (Mitteleuropäische Sommerzeit),72,4,eine perfekt klare Vorstellung,6,29,2,6,1,Ich verstehe den Satz nicht nicht.,3,gustatory,5,1562673243157,keine Vorstellung,English,23,2,,Abitur,"Stellen Sie sich den folgenden <b>Geschmack</b> vor und betrachten Sie sorgfältig die entstehende <b>geschmackliche Vorstellung</b>.<br />Bewerten Sie, wie lebhaft Sie sich den Folgenden vorstellen können:",5,6,13988,5,German,German,weiblich,21,1562672587733,10.923733333333333,no,6,6,ratingScaleTask
436,<b>Geräusch</b>: Des Pfeifens einer Lokomotive,Tue Jul 09 2019 13:43:07 GMT+0200 (Mitteleuropäische Sommerzeit),72,4,eine perfekt klare Vorstellung,6,12,2,6,1,Ich verstehe den Satz nicht nicht.,3,auditory,5,1562673243157,keine Vorstellung,English,23,2,,Abitur,"Stellen Sie sich das folgende <b>Geräusch</b> vor und betrachten Sie sorgfältig die entstehende <b>auditive Impression</b>.<br />Bewerten Sie, wie lebhaft Sie sich Folgendes Geräusch vorstellen können:",5,6,11610,5,German,German,weiblich,22,1562672587733,10.923733333333333,no,6,6,ratingScaleTask
436,"<b>Geruch</b> von: Rindfleisch, das angebraten wird",Tue Jul 09 2019 13:43:07 GMT+0200 (Mitteleuropäische Sommerzeit),72,4,eine perfekt klare Vorstellung,6,34,2,6,1,Ich verstehe den Satz nicht nicht.,3,olfactory,5,1562673243157,keine Vorstellung,English,23,1,,Abitur,"Stellen Sie sich den folgenden <b>Geruch</b> vor und betrachten Sie sorgfältig die entstehende <b>Geruchsvorstellung</b>.<br />Bewerten Sie, wie lebhaft Sie sich den Folgenden vorstellen können",5,6,6770,5,German,German,weiblich,23,1562672587733,10.923733333333333,no,6,6,ratingScaleTask
436,<b>Gefühl</b> von: Sand,Tue Jul 09 2019 13:43:07 GMT+0200 (Mitteleuropäische Sommerzeit),72,4,eine perfekt klare Vorstellung,6,17,2,6,1,Ich verstehe den Satz nicht nicht.,3,tactile,5,1562673243157,keine Vorstellung,English,23,6,,Abitur,"Stellen Sie sich das <b>Gefühl</b> des Folgenden <b>auf der Haut</b> vor und betrachten Sie sorgfältig die entstehende <b>taktile (fühlbare) Vorstellung</b>.<br />Bewerten Sie, wie lebhaft Sie sich Folgendes vorstellen können:",5,6,8538,5,German,German,weiblich,24,1562672587733,10.923733333333333,no,6,6,ratingScaleTask
436,<b>Klang</b> von: Entweichendem Dampf,Tue Jul 09 2019 13:43:07 GMT+0200 (Mitteleuropäische Sommerzeit),72,4,eine perfekt klare Vorstellung,6,15,2,6,1,Ich verstehe den Satz nicht nicht.,3,auditory,5,1562673243157,keine Vorstellung,English,23,7,,Abitur,"Stellen Sie sich den folgenden <b>Klang</b> vor und betrachten Sie sorgfältig die entstehende <b>auditive Impression</b>.<br />Bewerten Sie, wie lebhaft Sie sich Folgendes vorstellen können:",5,6,9783,5,German,German,weiblich,25,1562672587733,10.923733333333333,no,6,6,ratingScaleTask
436,<b>Bewegung</b>: Über einen (kleinen) Bach springen,Tue Jul 09 2019 13:43:07 GMT+0200 (Mitteleuropäische Sommerzeit),72,4,eine perfekt klare Vorstellung,6,23,2,6,1,Ich verstehe den Satz nicht nicht.,3,motor,5,1562673243157,keine Vorstellung,English,23,6,,Abitur,"Stellen Sie sich, vor das Folgende <b>zu tun</b> und betrachten Sie sorgfältig die entstehende Vorstellung, wie sich <b>Ihre Körperteile bewegen und anfühlen</b>, um das Beschriebene <b>auszuführen</b>.<br />Bewerten Sie, wie lebhaft Sie sich Folgendes vorstellen können:",5,6,8429,5,German,German,weiblich,26,1562672587733,10.923733333333333,no,6,6,ratingScaleTask
436,<b>Gefühl</b> von: Leinen,Tue Jul 09 2019 13:43:07 GMT+0200 (Mitteleuropäische Sommerzeit),72,4,eine perfekt klare Vorstellung,6,18,2,6,1,Ich verstehe den Satz nicht nicht.,3,tactile,5,1562673243157,keine Vorstellung,English,23,7,,Abitur,"Stellen Sie sich das <b>Gefühl</b> des Folgenden <b>auf der Haut</b> vor und betrachten Sie sorgfältig die entstehende <b>taktile (fühlbare) Vorstellung</b>.<br />Bewerten Sie, wie lebhaft Sie sich Folgendes vorstellen können:",5,6,7828,5,German,German,weiblich,27,1562672587733,10.923733333333333,no,6,6,ratingScaleTask
436,"<b>Bild</b> von: Den verschiedenen Farben, mit denen sich die Person häufig kleidet",Tue Jul 09 2019 13:43:07 GMT+0200 (Mitteleuropäische Sommerzeit),72,4,eine perfekt klare Vorstellung,6,10,2,6,1,Ich verstehe den Satz nicht nicht.,3,visual,5,1562673243157,keine Vorstellung,English,23,4,,Abitur,"Denken Sie an eine*n Verwandte*n oder eine*n Freund*in, den/die Sie regelmäßig <b>sehen</b>, und betrachten Sie sorgfältig die entstehende <b>visuelle Vorstellung</b>.<br />Bewerten Sie, wie lebhaft Sie sich Folgendes vorstellen können:",5,6,14107,5,German,German,weiblich,28,1562672587733,10.923733333333333,no,6,6,ratingScaleTask
436,<b>Geschmack</b> von: Deiner Lieblings-Suppe,Tue Jul 09 2019 13:43:07 GMT+0200 (Mitteleuropäische Sommerzeit),72,4,eine perfekt klare Vorstellung,6,31,2,6,1,Ich verstehe den Satz nicht nicht.,3,gustatory,5,1562673243157,keine Vorstellung,English,23,3,,Abitur,"Stellen Sie sich den folgenden <b>Geschmack</b> vor und betrachten Sie sorgfältig die entstehende <b>geschmackliche Vorstellung</b>.<br />Bewerten Sie, wie lebhaft Sie sich den Folgenden vorstellen können:",5,6,6239,5,German,German,weiblich,29,1562672587733,10.923733333333333,no,6,6,ratingScaleTask
436,<b>Geruch</b> von: Neuem Leder,Tue Jul 09 2019 13:43:07 GMT+0200 (Mitteleuropäische Sommerzeit),72,4,eine perfekt klare Vorstellung,6,36,2,6,1,Ich verstehe den Satz nicht nicht.,3,olfactory,5,1562673243157,keine Vorstellung,English,23,2,,Abitur,"Stellen Sie sich den folgenden <b>Geruch</b> vor und betrachten Sie sorgfältig die entstehende <b>Geruchsvorstellung</b>.<br />Bewerten Sie, wie lebhaft Sie sich den Folgenden vorstellen können:",5,6,7136,5,German,German,weiblich,30,1562672587733,10.923733333333333,no,6,6,ratingScaleTask
436,<b>Geruch</b> von: Einem schlecht belüftetem Raum,Tue Jul 09 2019 13:43:07 GMT+0200 (Mitteleuropäische Sommerzeit),72,4,eine perfekt klare Vorstellung,6,32,2,6,1,Ich verstehe den Satz nicht nicht.,3,olfactory,5,1562673243157,keine Vorstellung,English,23,4,,Abitur,"Stellen Sie sich den folgenden <b>Geruch</b> vor und betrachten Sie sorgfältig die entstehende <b>geschmackliche Vorstellung</b>.<br />Bewerten Sie, wie lebhaft Sie sich den Folgenden vorstellen können:",5,6,5099,5,German,German,weiblich,31,1562672587733,10.923733333333333,no,6,6,ratingScaleTask
436,<b>Gefühl</b> von: Hunger,Tue Jul 09 2019 13:43:07 GMT+0200 (Mitteleuropäische Sommerzeit),72,4,eine perfekt klare Vorstellung,6,38,2,6,1,Ich verstehe den Satz nicht nicht.,3,organic,5,1562673243157,keine Vorstellung,English,23,5,,Abitur,"Stellen Sie sich das folgende <b>Gefühl</b> vor und begutachten Sie die genaue <b>Impression dieses Gefühles</b>, welches in Ihre Gedanken dazu kommt.<br />Bewerten Sie, wie lebhaft Sie sich das Folgende vorstellen können:",5,6,3219,5,German,German,weiblich,32,1562672587733,10.923733333333333,no,6,6,ratingScaleTask
436,<b>Geruch</b>: bei dem Kochen von Kohl.,Tue Jul 09 2019 13:43:07 GMT+0200 (Mitteleuropäische Sommerzeit),72,4,eine perfekt klare Vorstellung,6,33,2,6,1,Ich verstehe den Satz nicht nicht.,3,olfactory,5,1562673243157,keine Vorstellung,English,23,2,,Abitur,"Stellen Sie sich den folgenden <b>Geruch</b> vor und betrachten Sie sorgfältig die entstehende <b>Geruchsvorstellung</b>.<br />Bewerten Sie, wie lebhaft Sie sich den Folgenden vorstellen können:",5,6,9321,5,German,German,weiblich,33,1562672587733,10.923733333333333,no,6,6,ratingScaleTask
436,<b>Bewegung</b>: Zu einem hohen Regal hoch greifen,Tue Jul 09 2019 13:43:07 GMT+0200 (Mitteleuropäische Sommerzeit),72,4,eine perfekt klare Vorstellung,6,25,2,6,1,Ich verstehe den Satz nicht nicht.,3,motor,5,1562673243157,keine Vorstellung,English,23,6,,Abitur,"Stellen Sie sich vor, das Folgende <b>zu tun</b> und betrachten Sie sorgfältig die entstehende Vorstellung, wie sich Ihre <b>Körperteile bewegen und anfühlen</b>, um das Beschriebene <b>auszuführen</b>.<br />Bewerten Sie, wie lebhaft Sie sich Folgendes vorstellen können:",5,6,9719,5,German,German,weiblich,34,1562672587733,10.923733333333333,no,6,6,ratingScaleTask
436,<b>Gefühl</b> von: Der Wärme eines lauwarmen Bades,Tue Jul 09 2019 13:43:07 GMT+0200 (Mitteleuropäische Sommerzeit),72,4,eine perfekt klare Vorstellung,6,21,2,6,1,Ich verstehe den Satz nicht nicht.,3,tactile,5,1562673243157,keine Vorstellung,English,23,6,,Abitur,"Stellen Sie sich das <b>Gefühl</b> des Folgenden <b>auf der Haut</b> vor und betrachten Sie sorgfältig die entstehende <b>taktile (fühlbare) Vorstellung</b>.<br />Bewerten Sie, wie lebhaft Sie sich Folgendes vorstellen können:",5,6,7696,5,German,German,weiblich,35,1562672587733,10.923733333333333,no,6,6,ratingScaleTask
431,<b>Geschmack</b> von: Erdbeeren,Mon Jul 08 2019 19:20:25 GMT+0200 (Mitteleuropäische Sommerzeit),72,,eine perfekt klare Vorstellung,,4,,,,Ich verstehe den Satz nicht nicht.,,gustatory,,1562606724668,keine Vorstellung,,22,5,,,"Stellen Sie sich den folgenden <b>Geschmack</b> vor und betrachten Sie sorgfältig die entstehende <b>geschmackliche Vorstellung</b>.<br />Bewerten Sie, wie lebhaft Sie sich Folgendes vorstellen können:",,,5986,,,German,,1,1562606425906,4.9793666666666665,,,,ratingScaleTrial_ger
431,<b>Bewegung</b>: Das Hinsetzen auf einen Stuhl,Mon Jul 08 2019 19:20:25 GMT+0200 (Mitteleuropäische Sommerzeit),72,,eine perfekt klare Vorstellung,,3,,,,Ich verstehe den Satz nicht nicht.,,motor,,1562606724668,keine Vorstellung,,22,5,,,"Stellen Sie sich vor, das Folgende <b>zu tun</b> und betrachten Sie sorgfältig die entstehende Vorstellung, wie sich Ihre <b>Körperteile bewegen und anfühlen</b>, um das Beschriebene <b>auszuführen</b>.<br />Bewerten Sie, wie lebhaft Sie sich Folgendes vorstellen können:",,,645,,,German,,2,1562606425906,4.9793666666666665,,,,ratingScaleTrial_ger
431,<b>Klang / Geräusch</b> von: Auf die Straße fallender Regen,Mon Jul 08 2019 19:20:25 GMT+0200 (Mitteleuropäische Sommerzeit),72,,eine perfekt klare Vorstellung,,1,,,,Ich verstehe den Satz nicht nicht.,,auditory,,1562606724668,keine Vorstellung,,22,6,,,"Stellen Sie sich den folgenden <b>Klang</b> bzw. das folgende <b>Geräusch</b> vor und betrachten Sie sorgfältig die entstehende <b>auditive Vorstellung</b>.<br />Bewerten Sie, wie lebhaft Sie sich Folgendes vorstellen können:",,,16675,,,German,,3,1562606425906,4.9793666666666665,,,,ratingScaleTrial_ger
431,"<b>Bild</b>: Eines Balls, der auf und ab hüpft",Mon Jul 08 2019 19:20:25 GMT+0200 (Mitteleuropäische Sommerzeit),72,,eine perfekt klare Vorstellung,,0,,,,Ich verstehe den Satz nicht nicht.,,visual,,1562606724668,keine Vorstellung,,22,5,,,"Stellen Sie sich das folgende <b>Bild</b> vor und betrachten Sie sorgfältig die entstehende <b>visuelle Vorstellung</b>.<br />Bewerten Sie, wie lebhaft Sie sich Folgendes vorstellen können:",,,4935,,,German,,4,1562606425906,4.9793666666666665,,,,ratingScaleTrial_ger
431,<b>Geruch</b> von: frisch gebrühtem Kaffee,Mon Jul 08 2019 19:20:25 GMT+0200 (Mitteleuropäische Sommerzeit),72,,eine perfekt klare Vorstellung,,5,,,,Ich verstehe den Satz nicht nicht.,,olfactory,,1562606724668,keine Vorstellung,,22,5,,,"Stellen Sie sich den folgenden <b>Geruch</b> vor und betrachten Sie sorgfältig die entstehende <b>Geruchsvorstellung</b>.<br />Bewerten Sie, wie lebhaft Sie sich Folgendes vorstellen können:",,,4437,,,German,,5,1562606425906,4.9793666666666665,,,,ratingScaleTrial_ger
431,<b>Gefühl</b>: Das Kitzeln einer Fliege auf der Haut,Mon Jul 08 2019 19:20:25 GMT+0200 (Mitteleuropäische Sommerzeit),72,,eine perfekt klare Vorstellung,,2,,,,Ich verstehe den Satz nicht nicht.,,tactile,,1562606724668,keine Vorstellung,,22,5,,,"Stellen Sie sich das <b>Gefühl</b> oder die <b>Berührung</b> des Folgenden vor und betrachten Sie sorgfältig die entstehende <b>taktile (fühlbare) Vorstellung</b>.<br />Bewerten Sie, wie lebhaft Sie sich Folgendes vorstellen können:",,,5339,,,German,,6,1562606425906,4.9793666666666665,,,,ratingScaleTrial_ger
431,"<b>Gefühl</b>: das Sie hatten, wenn die Schulklingel läutete",Mon Jul 08 2019 19:20:25 GMT+0200 (Mitteleuropäische Sommerzeit),72,,eine perfekt klare Vorstellung,,6,,,,Ich verstehe den Satz nicht nicht.,,organic,,1562606724668,keine Vorstellung,,22,5,,,"Stellen Sie sich das folgende <b>Gefühl</b> vor und begutachten Sie genau die <b>Vorstellung, welche in Ihre Gedanken dazu entsteht</b>.<br />Bewerten Sie, wie lebhaft Sie sich Folgendes vorstellen können:",,,5176,,,German,,7,1562606425906,4.9793666666666665,,,,ratingScaleTrial_ger
431,<b>Gefühl</b> von: Hunger,Mon Jul 08 2019 19:20:25 GMT+0200 (Mitteleuropäische Sommerzeit),72,,eine perfekt klare Vorstellung,,38,,,,Ich verstehe den Satz nicht nicht.,,organic,,1562606724668,keine Vorstellung,,22,5,,,"Stellen Sie sich das folgende <b>Gefühl</b> vor und begutachten Sie die genaue <b>Impression dieses Gefühles</b>, welches in Ihre Gedanken dazu kommt.<br />Bewerten Sie, wie lebhaft Sie sich das Folgende vorstellen können:",,,5965,,,German,,1,1562606425906,4.9793666666666665,,,,ratingScaleTask
431,<b>Klang</b> von: Entweichendem Dampf,Mon Jul 08 2019 19:20:25 GMT+0200 (Mitteleuropäische Sommerzeit),72,,eine perfekt klare Vorstellung,,15,,,,Ich verstehe den Satz nicht nicht.,,auditory,,1562606724668,keine Vorstellung,,22,6,,,"Stellen Sie sich den folgenden <b>Klang</b> vor und betrachten Sie sorgfältig die entstehende <b>auditive Impression</b>.<br />Bewerten Sie, wie lebhaft Sie sich Folgendes vorstellen können:",,,2551,,,German,,2,1562606425906,4.9793666666666665,,,,ratingScaleTask
431,"<b>Geruch</b> von: Rindfleisch, das angebraten wird",Mon Jul 08 2019 19:20:25 GMT+0200 (Mitteleuropäische Sommerzeit),72,,eine perfekt klare Vorstellung,,34,,,,Ich verstehe den Satz nicht nicht.,,olfactory,,1562606724668,keine Vorstellung,,22,5,,,"Stellen Sie sich den folgenden <b>Geruch</b> vor und betrachten Sie sorgfältig die entstehende <b>Geruchsvorstellung</b>.<br />Bewerten Sie, wie lebhaft Sie sich den Folgenden vorstellen können",,,1531,,,German,,3,1562606425906,4.9793666666666665,,,,ratingScaleTask
431,<b>Geschmack</b> von: Salz,Mon Jul 08 2019 19:20:25 GMT+0200 (Mitteleuropäische Sommerzeit),72,,eine perfekt klare Vorstellung,,27,,,,Ich verstehe den Satz nicht nicht.,,taste,,1562606724668,keine Vorstellung,,22,6,,,"Stellen Sie sich den folgenden <b>Geschmack</b> vor und betrachten Sie sorgfältig die entstehende <b>geschmackliche Vorstellung</b>.<br />Bewerten Sie, wie lebhaft Sie sich den Folgenden vorstellen können:",,,2801,,,German,,4,1562606425906,4.9793666666666665,,,,ratingScaleTask
431,<b>Geschmack</b> von: Orangen,Mon Jul 08 2019 19:20:25 GMT+0200 (Mitteleuropäische Sommerzeit),72,,eine perfekt klare Vorstellung,,29,,,,Ich verstehe den Satz nicht nicht.,,taste,,1562606724668,keine Vorstellung,,22,5,,,"Stellen Sie sich den folgenden <b>Geschmack</b> vor und betrachten Sie sorgfältig die entstehende <b>geschmackliche Vorstellung</b>.<br />Bewerten Sie, wie lebhaft Sie sich den Folgenden vorstellen können:",,,1730,,,German,,5,1562606425906,4.9793666666666665,,,,ratingScaleTask
431,<b>Geruch</b> von: Frischer Farbe,Mon Jul 08 2019 19:20:25 GMT+0200 (Mitteleuropäische Sommerzeit),72,,eine perfekt klare Vorstellung,,35,,,,Ich verstehe den Satz nicht nicht.,,olfactory,,1562606724668,keine Vorstellung,,22,7,,,"Stellen Sie sich den folgenden <b>Geruch</b> vor und betrachten Sie sorgfältig die entstehende <b>Geruchsvorstellung</b>.<br />Bewerten Sie, wie lebhaft Sie sich den Folgenden vorstellen können:",,,1277,,,German,,6,1562606425906,4.9793666666666665,,,,ratingScaleTask
431,<b>Gefühl</b> vom: Piksen einer Stecknadel,Mon Jul 08 2019 19:20:25 GMT+0200 (Mitteleuropäische Sommerzeit),72,,eine perfekt klare Vorstellung,,20,,,,Ich verstehe den Satz nicht nicht.,,tactile,,1562606724668,keine Vorstellung,,22,6,,,"Stellen Sie sich das <b>Gefühl</b> des Folgenden <b>auf der Haut</b> vor und betrachten Sie sorgfältig die entstehende <b>taktile (fühlbare) Vorstellung</b>.<br />Bewerten Sie, wie lebhaft Sie sich Folgendes vorstellen können:",,,2030,,,German,,7,1562606425906,4.9793666666666665,,,,ratingScaleTask
431,"<b>Bild</b> von: Der Sonne, wie sie am Horizont untergeht",Mon Jul 08 2019 19:20:25 GMT+0200 (Mitteleuropäische Sommerzeit),72,,eine perfekt klare Vorstellung,,11,,,,Ich verstehe den Satz nicht nicht.,,visual,,1562606724668,keine Vorstellung,,22,4,,,"Stellen Sie sich das folgende <b>Bild</b> vor und betrachten Sie sorgfältig die entstehende <b>visuelle Vorstellung</b>.<br />Bewerten Sie, wie lebhaft Sie sich Folgendes vorstellen können:",,,1047,,,German,,8,1562606425906,4.9793666666666665,,,,ratingScaleTask
431,<b>Bewegung</b>: Zu einem hohen Regal hoch greifen,Mon Jul 08 2019 19:20:25 GMT+0200 (Mitteleuropäische Sommerzeit),72,,eine perfekt klare Vorstellung,,25,,,,Ich verstehe den Satz nicht nicht.,,motor,,1562606724668,keine Vorstellung,,22,5,,,"Stellen Sie sich vor, das Folgende <b>zu tun</b> und betrachten Sie sorgfältig die entstehende Vorstellung, wie sich Ihre <b>Körperteile bewegen und anfühlen</b>, um das Beschriebene <b>auszuführen</b>.<br />Bewerten Sie, wie lebhaft Sie sich Folgendes vorstellen können:",,,1005,,,German,,9,1562606425906,4.9793666666666665,,,,ratingScaleTask
431,<b>Bewegung</b>: Ein Objekt aus dem Weg treten,Mon Jul 08 2019 19:20:25 GMT+0200 (Mitteleuropäische Sommerzeit),72,,eine perfekt klare Vorstellung,,26,,,,Ich verstehe den Satz nicht nicht.,,motor,,1562606724668,keine Vorstellung,,22,6,,,"Stellen Sie sich vor, das Folgende <b>zu tun</b> und betrachten Sie sorgfältig die entstehende Vorstellung, wie sich Ihre <b>Körperteile bewegen und anfühlen</b>, um das Beschriebene <b>auszuführen</b>.<br />Bewerten Sie, wie lebhaft Sie sich Folgendes vorstellen können:",,,1802,,,German,,10,1562606425906,4.9793666666666665,,,,ratingScaleTask
431,<b>Klang</b>: des Klatschens von Händen beim Applaudieren,Mon Jul 08 2019 19:20:25 GMT+0200 (Mitteleuropäische Sommerzeit),72,,eine perfekt klare Vorstellung,,16,,,,Ich verstehe den Satz nicht nicht.,,auditory,,1562606724668,keine Vorstellung,,22,4,,,"Stellen Sie sich den folgenden <b>Klang</b> vor und betrachten Sie sorgfältig die entstehende <b>auditive Impression</b>.<br />Bewerten Sie, wie lebhaft Sie sich Folgendes vorstellen können:",,,3991,,,German,,11,1562606425906,4.9793666666666665,,,,ratingScaleTask
431,<b>Gefühl</b> von: Sand,Mon Jul 08 2019 19:20:25 GMT+0200 (Mitteleuropäische Sommerzeit),72,,eine perfekt klare Vorstellung,,17,,,,Ich verstehe den Satz nicht nicht.,,tactile,,1562606724668,keine Vorstellung,,22,5,,,"Stellen Sie sich das <b>Gefühl</b> des Folgenden <b>auf der Haut</b> vor und betrachten Sie sorgfältig die entstehende <b>taktile (fühlbare) Vorstellung</b>.<br />Bewerten Sie, wie lebhaft Sie sich Folgendes vorstellen können:",,,1947,,,German,,12,1562606425906,4.9793666666666665,,,,ratingScaleTask
431,<b>Bewegung</b>: Einen Kreis auf ein Blatt Papier malen,Mon Jul 08 2019 19:20:25 GMT+0200 (Mitteleuropäische Sommerzeit),72,,eine perfekt klare Vorstellung,,24,,,,Ich verstehe den Satz nicht nicht.,,motor,,1562606724668,keine Vorstellung,,22,6,,,"Stellen Sie sich vor, das Folgende <b>zu tun</b> und betrachten Sie sorgfältig die entstehende Vorstellung, wie sich Ihre <b>Körperteile bewegen und anfühlen</b>, um das Beschriebene <b>auszuführen</b>.<br />Bewerten Sie, wie lebhaft Sie sich Folgendes vorstellen können:",,,3717,,,German,,13,1562606425906,4.9793666666666665,,,,ratingScaleTask
431,<b>Gefühl</b>: Eines schmerzend trockenen Halses,Mon Jul 08 2019 19:20:25 GMT+0200 (Mitteleuropäische Sommerzeit),72,,eine perfekt klare Vorstellung,,39,,,,Ich verstehe den Satz nicht nicht.,,organic,,1562606724668,keine Vorstellung,,22,5,,,"Stellen Sie sich das folgende <b>Gefühl</b> vor und begutachten Sie die genaue <b>Impression dieses Gefühles</b>, welches in Ihre Gedanken dazu kommt.<br />Bewerten Sie, wie lebhaft Sie sich das Folgende vorstellen können:",,,2058,,,German,,14,1562606425906,4.9793666666666665,,,,ratingScaleTask
431,"<b>Aussehen</b> von seiner/ihrer: Genauen Kontur des Gesichtes, Kopf, Schultern und Körper",Mon Jul 08 2019 19:20:25 GMT+0200 (Mitteleuropäische Sommerzeit),72,,eine perfekt klare Vorstellung,,7,,,,Ich verstehe den Satz nicht nicht.,,visual,,1562606724668,keine Vorstellung,,22,4,,,"Denken Sie an eine*n Verwandte*n oder eine*n Freund*in, den/die Sie regelmäßig <b>sehen</b>, und betrachten Sie sorgfältig die entstehende <b>visuelle Vorstellung</b>.<br />Bewerten Sie, wie lebhaft Sie sich Folgendes vorstellen können:",,,2909,,,German,,15,1562606425906,4.9793666666666665,,,,ratingScaleTask
431,"<b>Bild</b> von: Seinem/Ihrem Gang, wie er/sie läuft, wie lang seine/ihre Schritte sind, etc.",Mon Jul 08 2019 19:20:25 GMT+0200 (Mitteleuropäische Sommerzeit),72,,eine perfekt klare Vorstellung,,9,,,,Ich verstehe den Satz nicht nicht.,,visual,,1562606724668,keine Vorstellung,,22,6,,,"Denken Sie an eine*n Verwandte*n oder eine*n Freund*in, den/die Sie regelmäßig <b>sehen</b>, und betrachten Sie sorgfältig die entstehende <b>visuelle Vorstellung</b>.<br />Bewerten Sie, wie lebhaft Sie sich Folgendes vorstellen können:",,,2181,,,German,,16,1562606425906,4.9793666666666665,,,,ratingScaleTask
431,<b>Geschmack</b> von: Deiner Lieblings-Suppe,Mon Jul 08 2019 19:20:25 GMT+0200 (Mitteleuropäische Sommerzeit),72,,eine perfekt klare Vorstellung,,31,,,,Ich verstehe den Satz nicht nicht.,,taste,,1562606724668,keine Vorstellung,,22,5,,,"Stellen Sie sich den folgenden <b>Geschmack</b> vor und betrachten Sie sorgfältig die entstehende <b>geschmackliche Vorstellung</b>.<br />Bewerten Sie, wie lebhaft Sie sich den Folgenden vorstellen können:",,,2910,,,German,,17,1562606425906,4.9793666666666665,,,,ratingScaleTask
431,<b>Geruch</b>: bei dem Kochen von Kohl.,Mon Jul 08 2019 19:20:25 GMT+0200 (Mitteleuropäische Sommerzeit),72,,eine perfekt klare Vorstellung,,33,,,,Ich verstehe den Satz nicht nicht.,,olfactory,,1562606724668,keine Vorstellung,,22,4,,,"Stellen Sie sich den folgenden <b>Geruch</b> vor und betrachten Sie sorgfältig die entstehende <b>Geruchsvorstellung</b>.<br />Bewerten Sie, wie lebhaft Sie sich den Folgenden vorstellen können:",,,2569,,,German,,18,1562606425906,4.9793666666666665,,,,ratingScaleTask
431,<b>Gefühl</b> von: Fell,Mon Jul 08 2019 19:20:25 GMT+0200 (Mitteleuropäische Sommerzeit),72,,eine perfekt klare Vorstellung,,19,,,,Ich verstehe den Satz nicht nicht.,,tactile,,1562606724668,keine Vorstellung,,22,3,,,"Stellen Sie sich das <b>Gefühl</b> des Folgenden <b>auf der Haut</b> vor und betrachten Sie sorgfältig die entstehende <b>taktile (fühlbare) Vorstellung</b>.<br />Bewerten Sie, wie lebhaft Sie sich Folgendes vorstellen können:",,,2348,,,German,,19,1562606425906,4.9793666666666665,,,,ratingScaleTask
431,<b>Geruch</b> von: Einem schlecht belüftetem Raum,Mon Jul 08 2019 19:20:25 GMT+0200 (Mitteleuropäische Sommerzeit),72,,eine perfekt klare Vorstellung,,32,,,,Ich verstehe den Satz nicht nicht.,,olfactory,,1562606724668,keine Vorstellung,,22,6,,,"Stellen Sie sich den folgenden <b>Geruch</b> vor und betrachten Sie sorgfältig die entstehende <b>geschmackliche Vorstellung</b>.<br />Bewerten Sie, wie lebhaft Sie sich den Folgenden vorstellen können:",,,1861,,,German,,20,1562606425906,4.9793666666666665,,,,ratingScaleTask
431,"<b>Gefühl</b> von: Das Unwohlsein, nachdem man zu viel gegessen hat.",Mon Jul 08 2019 19:20:25 GMT+0200 (Mitteleuropäische Sommerzeit),72,,eine perfekt klare Vorstellung,,41,,,,Ich verstehe den Satz nicht nicht.,,organic,,1562606724668,keine Vorstellung,,22,4,,,"Stellen Sie sich das folgende <b>Gefühl</b> vor und begutachten Sie die genaue <b>Impression dieses Gefühles</b>, welches in Ihre Gedanken dazu kommt.<br />Bewerten Sie, wie lebhaft Sie sich das Folgende vorstellen können:",,,1014,,,German,,21,1562606425906,4.9793666666666665,,,,ratingScaleTask
431,<b>Bewegung</b>: Über einen (kleinen) Bach springen,Mon Jul 08 2019 19:20:25 GMT+0200 (Mitteleuropäische Sommerzeit),72,,eine perfekt klare Vorstellung,,23,,,,Ich verstehe den Satz nicht nicht.,,motor,,1562606724668,keine Vorstellung,,22,5,,,"Stellen Sie sich, vor das Folgende <b>zu tun</b> und betrachten Sie sorgfältig die entstehende Vorstellung, wie sich <b>Ihre Körperteile bewegen und anfühlen</b>, um das Beschriebene <b>auszuführen</b>.<br />Bewerten Sie, wie lebhaft Sie sich Folgendes vorstellen können:",,,643,,,German,,22,1562606425906,4.9793666666666665,,,,ratingScaleTask
431,"<b>Bild</b> von seinen/ihren: Charakteristischen Haltungen von Kopf, Körper, etc.",Mon Jul 08 2019 19:20:25 GMT+0200 (Mitteleuropäische Sommerzeit),72,,eine perfekt klare Vorstellung,,8,,,,Ich verstehe den Satz nicht nicht.,,visual,,1562606724668,keine Vorstellung,,22,7,,,"Denken Sie an eine*n Verwandte*n oder eine*n Freund*in, den/die Sie regelmäßig <b>sehen</b>, und betrachten Sie sorgfältig die entstehende <b>visuelle Vorstellung</b>.<br />Bewerten Sie, wie lebhaft Sie sich Folgendes vorstellen können:",,,1919,,,German,,23,1562606425906,4.9793666666666665,,,,ratingScaleTask
431,<b>Gefühl</b> von: Ermüdung,Mon Jul 08 2019 19:20:25 GMT+0200 (Mitteleuropäische Sommerzeit),72,,eine perfekt klare Vorstellung,,37,,,,Ich verstehe den Satz nicht nicht.,,organic,,1562606724668,keine Vorstellung,,22,6,,,"Stellen Sie sich das folgende <b>Gefühl</b> vor und begutachten Sie die genaue <b>Impression dieses Gefühles</b>, welches in Ihre Gedanken dazu kommt.<br />Bewerten Sie, wie lebhaft Sie sich das Folgende vorstellen können:",,,1129,,,German,,24,1562606425906,4.9793666666666665,,,,ratingScaleTask
431,<b>Gefühl</b> von: Schläfrigkeit,Mon Jul 08 2019 19:20:25 GMT+0200 (Mitteleuropäische Sommerzeit),72,,eine perfekt klare Vorstellung,,40,,,,Ich verstehe den Satz nicht nicht.,,organic,,1562606724668,keine Vorstellung,,22,7,,,"Stellen Sie sich das folgende <b>Gefühl</b> vor und begutachten Sie die genaue <b>Impression dieses Gefühles</b>, welches in Ihre Gedanken dazu kommt.<br />Bewerten Sie, wie lebhaft Sie sich das Folgende vorstellen können:",,,969,,,German,,25,1562606425906,4.9793666666666665,,,,ratingScaleTask
431,<b>Gefühl</b> von: Leinen,Mon Jul 08 2019 19:20:25 GMT+0200 (Mitteleuropäische Sommerzeit),72,,eine perfekt klare Vorstellung,,18,,,,Ich verstehe den Satz nicht nicht.,,tactile,,1562606724668,keine Vorstellung,,22,6,,,"Stellen Sie sich das <b>Gefühl</b> des Folgenden <b>auf der Haut</b> vor und betrachten Sie sorgfältig die entstehende <b>taktile (fühlbare) Vorstellung</b>.<br />Bewerten Sie, wie lebhaft Sie sich Folgendes vorstellen können:",,,1011,,,German,,26,1562606425906,4.9793666666666665,,,,ratingScaleTask
431,<b>Klang</b>: Des Miauens einer Katze,Mon Jul 08 2019 19:20:25 GMT+0200 (Mitteleuropäische Sommerzeit),72,,eine perfekt klare Vorstellung,,14,,,,Ich verstehe den Satz nicht nicht.,,auditory,,1562606724668,keine Vorstellung,,22,7,,,"Stellen Sie sich den folgenden <b>Klang</b> vor und betrachten Sie sorgfältig die entstehende <b>auditive Impression</b>.<br />Bewerten Sie, wie lebhaft Sie sich Folgendes vorstellen können:",,,905,,,German,,27,1562606425906,4.9793666666666665,,,,ratingScaleTask
431,<b>Geräusch</b>: Des Pfeifens einer Lokomotive,Mon Jul 08 2019 19:20:25 GMT+0200 (Mitteleuropäische Sommerzeit),72,,eine perfekt klare Vorstellung,,12,,,,Ich verstehe den Satz nicht nicht.,,auditory,,1562606724668,keine Vorstellung,,22,3,,,"Stellen Sie sich das folgende <b>Geräusch</b> vor und betrachten Sie sorgfältig die entstehende <b>auditive Impression</b>.<br />Bewerten Sie, wie lebhaft Sie sich Folgendes Geräusch vorstellen können:",,,1624,,,German,,28,1562606425906,4.9793666666666665,,,,ratingScaleTask
431,<b>Geschmack</b> von: Marmelade,Mon Jul 08 2019 19:20:25 GMT+0200 (Mitteleuropäische Sommerzeit),72,,eine perfekt klare Vorstellung,,30,,,,Ich verstehe den Satz nicht nicht.,,taste,,1562606724668,keine Vorstellung,,22,6,,,"Stellen Sie sich den folgenden <b>Geschmack</b> vor und betrachten Sie sorgfältig die entstehende <b>geschmackliche Vorstellung</b>.<br />Bewerten Sie, wie lebhaft Sie sich den Folgenden vorstellen können:",,,1278,,,German,,29,1562606425906,4.9793666666666665,,,,ratingScaleTask
431,<b>Bewegung</b>: Eine Treppe hoch rennen,Mon Jul 08 2019 19:20:25 GMT+0200 (Mitteleuropäische Sommerzeit),72,,eine perfekt klare Vorstellung,,22,,,,Ich verstehe den Satz nicht nicht.,,motor,,1562606724668,keine Vorstellung,,22,4,,,"Stellen Sie sich vor, das Folgende <b>zu tun</b> und betrachten Sie sorgfältig die entstehende Vorstellung, wie sich Ihre <b>Körperteile bewegen und anfühlen</b>, um das Beschriebene <b>auszuführen</b>.<br />Bewerten Sie, wie lebhaft Sie sich Folgendes vorstellen können:",,,1362,,,German,,30,1562606425906,4.9793666666666665,,,,ratingScaleTask
431,<b>Klang</b>: Eines hupenden Autos,Mon Jul 08 2019 19:20:25 GMT+0200 (Mitteleuropäische Sommerzeit),72,,eine perfekt klare Vorstellung,,13,,,,Ich verstehe den Satz nicht nicht.,,auditory,,1562606724668,keine Vorstellung,,22,0,,,"Stellen Sie sich den folgenden <b>Klang</b> vor und betrachten Sie sorgfältig die entstehende <b>auditive Impression</b>.<br />Bewerten Sie, wie lebhaft Sie sich Folgendes vorstellen können:",,,1263,,,German,,31,1562606425906,4.9793666666666665,,,,ratingScaleTask
431,"<b>Bild</b> von: Den verschiedenen Farben, mit denen sich die Person häufig kleidet",Mon Jul 08 2019 19:20:25 GMT+0200 (Mitteleuropäische Sommerzeit),72,,eine perfekt klare Vorstellung,,10,,,,Ich verstehe den Satz nicht nicht.,,visual,,1562606724668,keine Vorstellung,,22,4,,,"Denken Sie an eine*n Verwandte*n oder eine*n Freund*in, den/die Sie regelmäßig <b>sehen</b>, und betrachten Sie sorgfältig die entstehende <b>visuelle Vorstellung</b>.<br />Bewerten Sie, wie lebhaft Sie sich Folgendes vorstellen können:",,,16368,,,German,,32,1562606425906,4.9793666666666665,,,,ratingScaleTask
431,<b>Geruch</b> von: Neuem Leder,Mon Jul 08 2019 19:20:25 GMT+0200 (Mitteleuropäische Sommerzeit),72,,eine perfekt klare Vorstellung,,36,,,,Ich verstehe den Satz nicht nicht.,,olfactory,,1562606724668,keine Vorstellung,,22,4,,,"Stellen Sie sich den folgenden <b>Geruch</b> vor und betrachten Sie sorgfältig die entstehende <b>Geruchsvorstellung</b>.<br />Bewerten Sie, wie lebhaft Sie sich den Folgenden vorstellen können:",,,2217,,,German,,33,1562606425906,4.9793666666666665,,,,ratingScaleTask
431,<b>Gefühl</b> von: Der Wärme eines lauwarmen Bades,Mon Jul 08 2019 19:20:25 GMT+0200 (Mitteleuropäische Sommerzeit),72,,eine perfekt klare Vorstellung,,21,,,,Ich verstehe den Satz nicht nicht.,,tactile,,1562606724668,keine Vorstellung,,22,6,,,"Stellen Sie sich das <b>Gefühl</b> des Folgenden <b>auf der Haut</b> vor und betrachten Sie sorgfältig die entstehende <b>taktile (fühlbare) Vorstellung</b>.<br />Bewerten Sie, wie lebhaft Sie sich Folgendes vorstellen können:",,,1149,,,German,,34,1562606425906,4.9793666666666665,,,,ratingScaleTask
431,<b>Geschmack</b> von: (weißem) Zucker,Mon Jul 08 2019 19:20:25 GMT+0200 (Mitteleuropäische Sommerzeit),72,,eine perfekt klare Vorstellung,,28,,,,Ich verstehe den Satz nicht nicht.,,taste,,1562606724668,keine Vorstellung,,22,6,,,"Stellen Sie sich den folgenden <b>Geschmack</b> vor und betrachten Sie sorgfältig die entstehende <b>geschmackliche Vorstellung</b>.<br />Bewerten Sie, wie lebhaft Sie sich den Folgenden vorstellen können:",,,1563,,,German,,35,1562606425906,4.9793666666666665,,,,ratingScaleTask
430,<b>smell</b> of: fresh brewed coffee,Mon Jul 08 2019 12:36:55 GMT+0200 (Mitteleuropäische Sommerzeit),72,5,perfectly clear,7,5,3,7,2,I don't understand the sentence.,4,olfactory,5,1562583020293,no image,English,22,4,,Graduated High School (Abitur),"Think of <b>smelling</b> the following, carefully considering the <b>olfactory image</b> that is produced. Rate how vividly you can imagine this:",6,7,21697,5,German,English,other,1,1562582215472,13.413683333333333,no,5,6,ratingScaleTrial_eng
430,<b>'feeling'</b> of: The The tickle of a fly on your skin,Mon Jul 08 2019 12:36:55 GMT+0200 (Mitteleuropäische Sommerzeit),72,5,perfectly clear,7,2,3,7,2,I don't understand the sentence.,4,tactile,5,1562583020293,no image,English,22,3,,Graduated High School (Abitur),"Think of the following <b>'feeling'</b> or <b>touching the following</b>, carefully considering the <b>tactile image</b> that comes to your imagination. Rate how vividly you can imagine this:",6,7,12191,5,German,English,other,2,1562582215472,13.413683333333333,no,5,6,ratingScaleTrial_eng
430,<b>Taste of</b>: Strawberrys,Mon Jul 08 2019 12:36:55 GMT+0200 (Mitteleuropäische Sommerzeit),72,5,perfectly clear,7,4,3,7,2,I don't understand the sentence.,4,gustatory,5,1562583020293,no image,English,22,6,,Graduated High School (Abitur),"Think of <b>tasting</b> the following, carefully considering the <b>gustatory image</b> that is produced. Rate how vividly you can imagine this:",6,7,5704,5,German,English,other,3,1562582215472,13.413683333333333,no,5,6,ratingScaleTrial_eng
430,<b>Movement</b>: Sitting down on a chair,Mon Jul 08 2019 12:36:55 GMT+0200 (Mitteleuropäische Sommerzeit),72,5,perfectly clear,7,3,3,7,2,I don't understand the sentence.,4,motor,5,1562583020293,no image,English,22,6,,Graduated High School (Abitur),"Think of <b>performing the following act</b>, carefully considering the image that <b>forms in your mind of your body part(s) moving</b>. Rate how vividly you can imagine this:",6,7,8913,5,German,English,other,4,1562582215472,13.413683333333333,no,5,6,ratingScaleTrial_eng
430,<b>image</b> of: A ball bouncing up and down,Mon Jul 08 2019 12:36:55 GMT+0200 (Mitteleuropäische Sommerzeit),72,5,perfectly clear,7,0,3,7,2,I don't understand the sentence.,4,visual,5,1562583020293,no image,English,22,7,,Graduated High School (Abitur),"Think of the following <b>image</b>, carefully considering the <b>visual image</b> that comes to your imagination. Rate how vividly you can imagine this:",6,7,20259,5,German,English,other,5,1562582215472,13.413683333333333,no,5,6,ratingScaleTrial_eng
430,<b>Sensation of</b>: The feeling you had when hearing the school bell ringing,Mon Jul 08 2019 12:36:55 GMT+0200 (Mitteleuropäische Sommerzeit),72,5,perfectly clear,7,6,3,7,2,I don't understand the sentence.,4,organic,5,1562583020293,no image,English,22,3,,Graduated High School (Abitur),"Think of the following <b>sensation</b>, carefully considering the <b>image that comes to your imagination</b>. Rate how vividly you can imagine this:",6,7,8006,5,German,English,other,6,1562582215472,13.413683333333333,no,5,6,ratingScaleTrial_eng
430,<b>sound</b> of: Rain falling on the street,Mon Jul 08 2019 12:36:55 GMT+0200 (Mitteleuropäische Sommerzeit),72,5,perfectly clear,7,1,3,7,2,I don't understand the sentence.,4,auditory,5,1562583020293,no image,English,22,6,,Graduated High School (Abitur),"Think of the following <b>sound</b>, carefully considering the <b>auditory</b> image that comes to your imagination. Rate how vividly you can imagine this:",6,7,6252,5,German,English,other,7,1562582215472,13.413683333333333,no,5,6,ratingScaleTrial_eng
430,<b>Movement</b> of: Running upstairs,Mon Jul 08 2019 12:36:55 GMT+0200 (Mitteleuropäische Sommerzeit),72,5,perfectly clear,7,22,3,7,2,I don't understand the sentence.,4,motor,5,1562583020293,no image,English,22,5,,Graduated High School (Abitur),"Think of <b>performing</b> each of the following <b>acts</b>, carefully considering the image that forms in your mind of your <b>arms, legs, lips, etc.</b> performing this act. Rate how vividly you can imagine the following:",6,7,14175,5,German,English,other,1,1562582215472,13.413683333333333,no,5,6,ratingScaleTask
430,<b>Sound</b> of: The clapping of hands in applause,Mon Jul 08 2019 12:36:55 GMT+0200 (Mitteleuropäische Sommerzeit),72,5,perfectly clear,7,16,3,7,2,I don't understand the sentence.,4,auditory,5,1562583020293,no image,English,22,7,,Graduated High School (Abitur),"Think of each of the following <b>sounds</b>, carefully considering the <b>auditory image</b>, that comes to your imagination. Rate how vividly you can imagine each of the following:",6,7,13931,5,German,English,other,2,1562582215472,13.413683333333333,no,5,6,ratingScaleTask
430,<b>Image</b> of: The different colors worn in their usual clothes,Mon Jul 08 2019 12:36:55 GMT+0200 (Mitteleuropäische Sommerzeit),72,5,perfectly clear,7,10,3,7,2,I don't understand the sentence.,4,visual,5,1562583020293,no image,English,22,5,,Graduated High School (Abitur),"Think of some relative or friend whom you frequently <b>see</b>, carefully considering the <b>visual image</b> that comes to your imagination. Rate how vividly you can imagine each of the following:",6,7,12875,5,German,English,other,3,1562582215472,13.413683333333333,no,5,6,ratingScaleTask
430,<b>Feeling</b> of: Linen,Mon Jul 08 2019 12:36:55 GMT+0200 (Mitteleuropäische Sommerzeit),72,5,perfectly clear,7,18,3,7,2,I don't understand the sentence.,4,tactile,5,1562583020293,no image,English,22,2,,Graduated High School (Abitur),"Think of the <b>'feeling' or touching</b> each of the following, carefully considering the <b>tactile image</b> that comes into your mind. Rate how vividly you can imagine the following:",6,7,11615,5,German,English,other,4,1562582215472,13.413683333333333,no,5,6,ratingScaleTask
430,<b>Smell</b> of: Fresh paint,Mon Jul 08 2019 12:36:55 GMT+0200 (Mitteleuropäische Sommerzeit),72,5,perfectly clear,7,35,3,7,2,I don't understand the sentence.,4,olfaction,5,1562583020293,no image,English,22,6,,Graduated High School (Abitur),"Think of <b>smelling</b> each of the following, carefully considering the <b>olfactory image</b> that is produced. Rate how vividly you can imagine the following:",6,7,41562,5,German,English,other,5,1562582215472,13.413683333333333,no,5,6,ratingScaleTask
430,<b>Sound</b> of: The horn of an automobile,Mon Jul 08 2019 12:36:55 GMT+0200 (Mitteleuropäische Sommerzeit),72,5,perfectly clear,7,13,3,7,2,I don't understand the sentence.,4,auditory,5,1562583020293,no image,English,22,4,,Graduated High School (Abitur),"Think of each of the following <b>sounds</b>, carefully considering the <b>auditory image</b>, that comes to your imagination. Rate how vividly you can imagine each of the following:",6,7,29725,5,German,English,other,6,1562582215472,13.413683333333333,no,5,6,ratingScaleTask
430,<b>Smell</b> of: A badly ventilated room,Mon Jul 08 2019 12:36:55 GMT+0200 (Mitteleuropäische Sommerzeit),72,5,perfectly clear,7,32,3,7,2,I don't understand the sentence.,4,olfaction,5,1562583020293,no image,English,22,5,,Graduated High School (Abitur),"Think of <b>smelling</b> each of the following, carefully considering the <b>olfactory image</b> that is produced. Rate how vividly you can imagine the following:",6,7,34279,5,German,English,other,7,1562582215472,13.413683333333333,no,5,6,ratingScaleTask
430,<b>Taste</b> of: Oranges,Mon Jul 08 2019 12:36:55 GMT+0200 (Mitteleuropäische Sommerzeit),72,5,perfectly clear,7,29,3,7,2,I don't understand the sentence.,4,taste,5,1562583020293,no image,English,22,6,,Graduated High School (Abitur),"Think of <b>tasting</b> each of the following, carefully considering the <b>gustatory image</b> that is produced. Rate how vividly you can imagine the following:",6,7,9019,5,German,English,other,8,1562582215472,13.413683333333333,no,5,6,ratingScaleTask
430,<b>Feeling</b> of: A sore throat,Mon Jul 08 2019 12:36:55 GMT+0200 (Mitteleuropäische Sommerzeit),72,5,perfectly clear,7,39,3,7,2,I don't understand the sentence.,4,organic,5,1562583020293,no image,English,22,2,,Graduated High School (Abitur),"Think of each of the following <b>sensations</b>, carefully considering the image that comes to your mind. Rate how vividly you can imagine each of the following: ",6,7,24752,5,German,English,other,9,1562582215472,13.413683333333333,no,5,6,ratingScaleTask
430,<b>Taste</b> of: Jelly,Mon Jul 08 2019 12:36:55 GMT+0200 (Mitteleuropäische Sommerzeit),72,5,perfectly clear,7,30,3,7,2,I don't understand the sentence.,4,taste,5,1562583020293,no image,English,22,4,,Graduated High School (Abitur),"Think of <b>tasting</b> each of the following, carefully considering the <b>gustatory image</b> that is produced. Rate how vividly you can imagine the following:",6,7,10927,5,German,English,other,10,1562582215472,13.413683333333333,no,5,6,ratingScaleTask
430,"<b>Image</b> of his/her: Exact contour of face, head, shoulders and body",Mon Jul 08 2019 12:36:55 GMT+0200 (Mitteleuropäische Sommerzeit),72,5,perfectly clear,7,7,3,7,2,I don't understand the sentence.,4,visual,5,1562583020293,no image,English,22,4,,Graduated High School (Abitur),"Think of some relative or friend whom you frequently <b>see<b/>, carefully considering the <b>visual image<b/> that comes to your imagination. Rate how vividly you can imagine each of the following:",6,7,33776,5,German,English,other,11,1562582215472,13.413683333333333,no,5,6,ratingScaleTask
430,<b>Smell</b> of: Cooking cabbage,Mon Jul 08 2019 12:36:55 GMT+0200 (Mitteleuropäische Sommerzeit),72,5,perfectly clear,7,33,3,7,2,I don't understand the sentence.,4,olfaction,5,1562583020293,no image,English,22,1,,Graduated High School (Abitur),"Think of <b>smelling</b> each of the following, carefully considering the <b>olfactory image</b> that is produced. Rate how vividly you can imagine the following:",6,7,30603,5,German,English,other,12,1562582215472,13.413683333333333,no,5,6,ratingScaleTask
430,<b>Smell</b> of: Roasting beef,Mon Jul 08 2019 12:36:55 GMT+0200 (Mitteleuropäische Sommerzeit),72,5,perfectly clear,7,34,3,7,2,I don't understand the sentence.,4,olfaction,5,1562583020293,no image,English,22,5,,Graduated High School (Abitur),"Think of <b>smelling</b> each of the following, carefully considering the <b>olfactory image</b> that is produced. Rate how vividly you can imagine the following:",6,7,6899,5,German,English,other,13,1562582215472,13.413683333333333,no,5,6,ratingScaleTask
430,<b>Feeling</b> of: The warmth of a tepid bath,Mon Jul 08 2019 12:36:55 GMT+0200 (Mitteleuropäische Sommerzeit),72,5,perfectly clear,7,21,3,7,2,I don't understand the sentence.,4,tactile,5,1562583020293,no image,English,22,3,,Graduated High School (Abitur),"Think of the <b>'feeling' or touching</b> each of the following, carefully considering the <b>tactile image</b> that comes into your mind. Rate how vividly you can imagine the following:",6,7,7962,5,German,English,other,14,1562582215472,13.413683333333333,no,5,6,ratingScaleTask
430,<b>Feeling</b> of: Fur,Mon Jul 08 2019 12:36:55 GMT+0200 (Mitteleuropäische Sommerzeit),72,5,perfectly clear,7,19,3,7,2,I don't understand the sentence.,4,tactile,5,1562583020293,no image,English,22,2,,Graduated High School (Abitur),"Think of the <b>'feeling' or touching</b> each of the following, carefully considering the <b>tactile image</b> that comes into your mind. Rate how vividly you can imagine the following:",6,7,6328,5,German,English,other,15,1562582215472,13.413683333333333,no,5,6,ratingScaleTask
430,<b>Taste</b> of: Your favorite soup,Mon Jul 08 2019 12:36:55 GMT+0200 (Mitteleuropäische Sommerzeit),72,5,perfectly clear,7,31,3,7,2,I don't understand the sentence.,4,taste,5,1562583020293,no image,English,22,5,,Graduated High School (Abitur),"Think of <b>tasting</b> each of the following, carefully considering the <b>gustatory image</b> that is produced. Rate how vividly you can imagine the following:",6,7,7610,5,German,English,other,16,1562582215472,13.413683333333333,no,5,6,ratingScaleTask
430,<b>Sound</b> of: The whistle of a locomotiv,Mon Jul 08 2019 12:36:55 GMT+0200 (Mitteleuropäische Sommerzeit),72,5,perfectly clear,7,12,3,7,2,I don't understand the sentence.,4,auditory,5,1562583020293,no image,English,22,6,,Graduated High School (Abitur),"Think of each of the following <b>sounds</b>, carefully considering the <b>auditory image</b>, that comes to your imagination. Rate how vividly you can imagine each of the following:",6,7,7293,5,German,English,other,17,1562582215472,13.413683333333333,no,5,6,ratingScaleTask
430,<b>Movement</b> of: Drawing a circle on paper,Mon Jul 08 2019 12:36:55 GMT+0200 (Mitteleuropäische Sommerzeit),72,5,perfectly clear,7,24,3,7,2,I don't understand the sentence.,4,motor,5,1562583020293,no image,English,22,4,,Graduated High School (Abitur),"Think of <b>performing</b> each of the following <b>acts</b>, carefully considering the image that forms in your mind of your <b>arms, legs, lips, etc.</b> performing this act. Rate how vividly you can imagine the following:",6,7,9912,5,German,English,other,18,1562582215472,13.413683333333333,no,5,6,ratingScaleTask
430,<b>Feeling</b> of: Feeling sick after eating a lot,Mon Jul 08 2019 12:36:55 GMT+0200 (Mitteleuropäische Sommerzeit),72,5,perfectly clear,7,41,3,7,2,I don't understand the sentence.,4,organic,5,1562583020293,no image,English,22,3,,Graduated High School (Abitur),"Think of each of the following <b>sensations</b>, carefully considering the image that comes to your mind. Rate how vividly you can imagine each of the following: ",6,7,8113,5,German,English,other,19,1562582215472,13.413683333333333,no,5,6,ratingScaleTask
430,<b>Feeling</b> of: Sand,Mon Jul 08 2019 12:36:55 GMT+0200 (Mitteleuropäische Sommerzeit),72,5,perfectly clear,7,17,3,7,2,I don't understand the sentence.,4,tactile,5,1562583020293,no image,English,22,6,,Graduated High School (Abitur),"Think of the <b>'feeling' or touching</b> each of the following, carefully considering the <b>tactile image</b> that comes into your mind. Rate how vividly you can imagine the following:",6,7,8439,5,German,English,other,20,1562582215472,13.413683333333333,no,5,6,ratingScaleTask
430,<b>Taste</b> of: Salt,Mon Jul 08 2019 12:36:55 GMT+0200 (Mitteleuropäische Sommerzeit),72,5,perfectly clear,7,27,3,7,2,I don't understand the sentence.,4,taste,5,1562583020293,no image,English,22,3,,Graduated High School (Abitur),"Think of <b>tasting</b> each of the following, carefully considering the <b>gustatory image</b> that is produced. Rate how vividly you can imagine the following:",6,7,9224,5,German,English,other,21,1562582215472,13.413683333333333,no,5,6,ratingScaleTask
430,<b>Movement</b> of: Reaching up to a high shelf,Mon Jul 08 2019 12:36:55 GMT+0200 (Mitteleuropäische Sommerzeit),72,5,perfectly clear,7,25,3,7,2,I don't understand the sentence.,4,motor,5,1562583020293,no image,English,22,4,,Graduated High School (Abitur),"Think of <b>performing</b> each of the following <b>acts</b>, carefully considering the image that forms in your mind of your <b>arms, legs, lips, etc.</b> performing this act. Rate how vividly you can imagine the following:",6,7,6350,5,German,English,other,22,1562582215472,13.413683333333333,no,5,6,ratingScaleTask
430,<b>Smell</b> of: New leather,Mon Jul 08 2019 12:36:55 GMT+0200 (Mitteleuropäische Sommerzeit),72,5,perfectly clear,7,36,3,7,2,I don't understand the sentence.,4,olfaction,5,1562583020293,no image,English,22,7,,Graduated High School (Abitur),"Think of <b>smelling</b> each of the following, carefully considering the <b>olfactory image</b> that is produced. Rate how vividly you can imagine the following:",6,7,4035,5,German,English,other,23,1562582215472,13.413683333333333,no,5,6,ratingScaleTask
430,"<b>Image</b> of his/her: The precise gait, length of step, etc.in walking",Mon Jul 08 2019 12:36:55 GMT+0200 (Mitteleuropäische Sommerzeit),72,5,perfectly clear,7,9,3,7,2,I don't understand the sentence.,4,visual,5,1562583020293,no image,English,22,4,,Graduated High School (Abitur),"Think of some relative or friend whom you frequently <b>see</b>, carefully considering the <b>visual image</b> that comes to your imagination. Rate how vividly you can imagine each of the following:",6,7,58464,5,German,English,other,24,1562582215472,13.413683333333333,no,5,6,ratingScaleTask
430,<b>Image</b> of: The sun as it is sinking below the horizon,Mon Jul 08 2019 12:36:55 GMT+0200 (Mitteleuropäische Sommerzeit),72,5,perfectly clear,7,11,3,7,2,I don't understand the sentence.,4,visual,5,1562583020293,no image,English,22,6,,Graduated High School (Abitur),"Think of the following <b>image</b>, carefully considering the <b>visual image</b> that comes to your imagination. Rate how vividly you can imagine the following:",6,7,6353,5,German,English,other,25,1562582215472,13.413683333333333,no,5,6,ratingScaleTask
430,<b>Sound</b> of: The meowing of a cat,Mon Jul 08 2019 12:36:55 GMT+0200 (Mitteleuropäische Sommerzeit),72,5,perfectly clear,7,14,3,7,2,I don't understand the sentence.,4,auditory,5,1562583020293,no image,English,22,2,,Graduated High School (Abitur),"Think of each of the following <b>sounds</b>, carefully considering the <b>auditory image</b>, that comes to your imagination. Rate how vividly you can imagine each of the following:",6,7,12371,5,German,English,other,26,1562582215472,13.413683333333333,no,5,6,ratingScaleTask
430,<b>Taste</b> of: Granulated (white) sugar,Mon Jul 08 2019 12:36:55 GMT+0200 (Mitteleuropäische Sommerzeit),72,5,perfectly clear,7,28,3,7,2,I don't understand the sentence.,4,taste,5,1562583020293,no image,English,22,6,,Graduated High School (Abitur),"Think of <b>tasting</b> each of the following, carefully considering the <b>gustatory image</b> that is produced. Rate how vividly you can imagine the following:",6,7,3116,5,German,English,other,27,1562582215472,13.413683333333333,no,5,6,ratingScaleTask
430,"<b>Image</b> of his/her: Characteristic poses of head, body, etc.",Mon Jul 08 2019 12:36:55 GMT+0200 (Mitteleuropäische Sommerzeit),72,5,perfectly clear,7,8,3,7,2,I don't understand the sentence.,4,visual,5,1562583020293,no image,English,22,3,,Graduated High School (Abitur),"Think of some relative or friend whom you frequently <b>see</b>, carefully considering the <b>visual image</b> that comes to your imagination. Rate how vividly you can imagine each of the following:",6,7,4116,5,German,English,other,28,1562582215472,13.413683333333333,no,5,6,ratingScaleTask
430,<b>Feeling</b> of: Drowsiness,Mon Jul 08 2019 12:36:55 GMT+0200 (Mitteleuropäische Sommerzeit),72,5,perfectly clear,7,40,3,7,2,I don't understand the sentence.,4,organic,5,1562583020293,no image,English,22,5,,Graduated High School (Abitur),"Think of each of the following <b>sensations</b>, carefully considering the image that comes to your mind. Rate how vividly you can imagine each of the following: ",6,7,1833,5,German,English,other,29,1562582215472,13.413683333333333,no,5,6,ratingScaleTask
430,<b>Movement</b> of: Jumping across a stream,Mon Jul 08 2019 12:36:55 GMT+0200 (Mitteleuropäische Sommerzeit),72,5,perfectly clear,7,23,3,7,2,I don't understand the sentence.,4,motor,5,1562583020293,no image,English,22,6,,Graduated High School (Abitur),"Think of <b>performing</b> each of the following <b>acts</b>, carefully considering the image that forms in your mind of your <b>arms, legs, lips, etc.</b> performing this act. Rate how vividly you can imagine the following:",6,7,2961,5,German,English,other,30,1562582215472,13.413683333333333,no,5,6,ratingScaleTask
430,<b>Feeling</b> of: The prick of a pin,Mon Jul 08 2019 12:36:55 GMT+0200 (Mitteleuropäische Sommerzeit),72,5,perfectly clear,7,20,3,7,2,I don't understand the sentence.,4,tactile,5,1562583020293,no image,English,22,2,,Graduated High School (Abitur),"Think of the <b>'feeling' or touching</b> each of the following, carefully considering the <b>tactile image</b> that comes into your mind. Rate how vividly you can imagine the following:",6,7,3479,5,German,English,other,31,1562582215472,13.413683333333333,no,5,6,ratingScaleTask
430,<b>Feeling</b> of: Fatigue,Mon Jul 08 2019 12:36:55 GMT+0200 (Mitteleuropäische Sommerzeit),72,5,perfectly clear,7,37,3,7,2,I don't understand the sentence.,4,organic,5,1562583020293,no image,English,22,0,,Graduated High School (Abitur),"Think of each of the following <b>sensations</b>, carefully considering the image that comes to your mind. Rate how vividly you can imagine each of the following: ",6,7,4240,5,German,English,other,32,1562582215472,13.413683333333333,no,5,6,ratingScaleTask
430,<b>Feeling</b> of: Hunger,Mon Jul 08 2019 12:36:55 GMT+0200 (Mitteleuropäische Sommerzeit),72,5,perfectly clear,7,38,3,7,2,I don't understand the sentence.,4,organic,5,1562583020293,no image,English,22,5,,Graduated High School (Abitur),"Think of each of the following <b>sensations</b>, carefully considering the image that comes to your mind. Rate how vividly you can imagine each of the following: ",6,7,1491,5,German,English,other,33,1562582215472,13.413683333333333,no,5,6,ratingScaleTask
430,<b>Sound</b> of: Escaping steam,Mon Jul 08 2019 12:36:55 GMT+0200 (Mitteleuropäische Sommerzeit),72,5,perfectly clear,7,15,3,7,2,I don't understand the sentence.,4,auditory,5,1562583020293,no image,English,22,2,,Graduated High School (Abitur),"Think of each of the following <b>sounds</b>, carefully considering the <b>auditory image</b>, that comes to your imagination. Rate how vividly you can imagine each of the following:",6,7,2789,5,German,English,other,34,1562582215472,13.413683333333333,no,5,6,ratingScaleTask
430,<b>Movement</b> of: Kicking something out of your way,Mon Jul 08 2019 12:36:55 GMT+0200 (Mitteleuropäische Sommerzeit),72,5,perfectly clear,7,26,3,7,2,I don't understand the sentence.,4,motor,5,1562583020293,no image,English,22,6,,Graduated High School (Abitur),"Think of <b>performing</b> each of the following <b>acts</b>, carefully considering the image that forms in your mind of your <b>arms, legs, lips, etc.</b> performing this act. Rate how vividly you can imagine the following:",6,7,4201,5,German,English,other,35,1562582215472,13.413683333333333,no,5,6,ratingScaleTask
429,<b>Movement</b>: Sitting down on a chair,Mon Jul 08 2019 12:36:31 GMT+0200 (Mitteleuropäische Sommerzeit),72,7,perfectly clear,5,3,3,7,3,I don't understand the sentence.,1,motor,7,1562582427396,no image,None,,4,,,"Think of <b>performing the following act</b>, carefully considering the image that <b>forms in your mind of your body part(s) moving</b>. Rate how vividly you can imagine this:",7,7,6091,7,None,English,,1,1562582191259,3.9356166666666668,yes,6,7,ratingScaleTrial_eng
429,<b>Sensation of</b>: The feeling you had when hearing the school bell ringing,Mon Jul 08 2019 12:36:31 GMT+0200 (Mitteleuropäische Sommerzeit),72,7,perfectly clear,5,6,3,7,3,I don't understand the sentence.,1,organic,7,1562582427396,no image,None,,5,,,"Think of the following <b>sensation</b>, carefully considering the <b>image that comes to your imagination</b>. Rate how vividly you can imagine this:",7,7,1706,7,None,English,,2,1562582191259,3.9356166666666668,yes,6,7,ratingScaleTrial_eng
429,<b>smell</b> of: fresh brewed coffee,Mon Jul 08 2019 12:36:31 GMT+0200 (Mitteleuropäische Sommerzeit),72,7,perfectly clear,5,5,3,7,3,I don't understand the sentence.,1,olfactory,7,1562582427396,no image,None,,6,,,"Think of <b>smelling</b> the following, carefully considering the <b>olfactory image</b> that is produced. Rate how vividly you can imagine this:",7,7,1156,7,None,English,,3,1562582191259,3.9356166666666668,yes,6,7,ratingScaleTrial_eng
429,<b>sound</b> of: Rain falling on the street,Mon Jul 08 2019 12:36:31 GMT+0200 (Mitteleuropäische Sommerzeit),72,7,perfectly clear,5,1,3,7,3,I don't understand the sentence.,1,auditory,7,1562582427396,no image,None,,4,,,"Think of the following <b>sound</b>, carefully considering the <b>auditory</b> image that comes to your imagination. Rate how vividly you can imagine this:",7,7,1557,7,None,English,,4,1562582191259,3.9356166666666668,yes,6,7,ratingScaleTrial_eng
429,<b>Taste of</b>: Strawberrys,Mon Jul 08 2019 12:36:31 GMT+0200 (Mitteleuropäische Sommerzeit),72,7,perfectly clear,5,4,3,7,3,I don't understand the sentence.,1,gustatory,7,1562582427396,no image,None,,7,,,"Think of <b>tasting</b> the following, carefully considering the <b>gustatory image</b> that is produced. Rate how vividly you can imagine this:",7,7,1143,7,None,English,,5,1562582191259,3.9356166666666668,yes,6,7,ratingScaleTrial_eng
429,<b>'feeling'</b> of: The The tickle of a fly on your skin,Mon Jul 08 2019 12:36:31 GMT+0200 (Mitteleuropäische Sommerzeit),72,7,perfectly clear,5,2,3,7,3,I don't understand the sentence.,1,tactile,7,1562582427396,no image,None,,4,,,"Think of the following <b>'feeling'</b> or <b>touching the following</b>, carefully considering the <b>tactile image</b> that comes to your imagination. Rate how vividly you can imagine this:",7,7,1026,7,None,English,,6,1562582191259,3.9356166666666668,yes,6,7,ratingScaleTrial_eng
429,<b>image</b> of: A ball bouncing up and down,Mon Jul 08 2019 12:36:31 GMT+0200 (Mitteleuropäische Sommerzeit),72,7,perfectly clear,5,0,3,7,3,I don't understand the sentence.,1,visual,7,1562582427396,no image,None,,5,,,"Think of the following <b>image</b>, carefully considering the <b>visual image</b> that comes to your imagination. Rate how vividly you can imagine this:",7,7,761,7,None,English,,7,1562582191259,3.9356166666666668,yes,6,7,ratingScaleTrial_eng
429,<b>Taste</b> of: Salt,Mon Jul 08 2019 12:36:31 GMT+0200 (Mitteleuropäische Sommerzeit),72,7,perfectly clear,5,27,3,7,3,I don't understand the sentence.,1,taste,7,1562582427396,no image,None,,6,,,"Think of <b>tasting</b> each of the following, carefully considering the <b>gustatory image</b> that is produced. Rate how vividly you can imagine the following:",7,7,9454,7,None,English,,1,1562582191259,3.9356166666666668,yes,6,7,ratingScaleTask
429,<b>Smell</b> of: Roasting beef,Mon Jul 08 2019 12:36:31 GMT+0200 (Mitteleuropäische Sommerzeit),72,7,perfectly clear,5,34,3,7,3,I don't understand the sentence.,1,olfaction,7,1562582427396,no image,None,,5,,,"Think of <b>smelling</b> each of the following, carefully considering the <b>olfactory image</b> that is produced. Rate how vividly you can imagine the following:",7,7,2949,7,None,English,,2,1562582191259,3.9356166666666668,yes,6,7,ratingScaleTask
429,<b>Feeling</b> of: Linen,Mon Jul 08 2019 12:36:31 GMT+0200 (Mitteleuropäische Sommerzeit),72,7,perfectly clear,5,18,3,7,3,I don't understand the sentence.,1,tactile,7,1562582427396,no image,None,,5,,,"Think of the <b>'feeling' or touching</b> each of the following, carefully considering the <b>tactile image</b> that comes into your mind. Rate how vividly you can imagine the following:",7,7,6237,7,None,English,,3,1562582191259,3.9356166666666668,yes,6,7,ratingScaleTask
429,<b>Feeling</b> of: The warmth of a tepid bath,Mon Jul 08 2019 12:36:31 GMT+0200 (Mitteleuropäische Sommerzeit),72,7,perfectly clear,5,21,3,7,3,I don't understand the sentence.,1,tactile,7,1562582427396,no image,None,,5,,,"Think of the <b>'feeling' or touching</b> each of the following, carefully considering the <b>tactile image</b> that comes into your mind. Rate how vividly you can imagine the following:",7,7,5135,7,None,English,,4,1562582191259,3.9356166666666668,yes,6,7,ratingScaleTask
429,<b>Movement</b> of: Reaching up to a high shelf,Mon Jul 08 2019 12:36:31 GMT+0200 (Mitteleuropäische Sommerzeit),72,7,perfectly clear,5,25,3,7,3,I don't understand the sentence.,1,motor,7,1562582427396,no image,None,,5,,,"Think of <b>performing</b> each of the following <b>acts</b>, carefully considering the image that forms in your mind of your <b>arms, legs, lips, etc.</b> performing this act. Rate how vividly you can imagine the following:",7,7,3181,7,None,English,,5,1562582191259,3.9356166666666668,yes,6,7,ratingScaleTask
429,"<b>Image</b> of his/her: Exact contour of face, head, shoulders and body",Mon Jul 08 2019 12:36:31 GMT+0200 (Mitteleuropäische Sommerzeit),72,7,perfectly clear,5,7,3,7,3,I don't understand the sentence.,1,visual,7,1562582427396,no image,None,,6,,,"Think of some relative or friend whom you frequently <b>see<b/>, carefully considering the <b>visual image<b/> that comes to your imagination. Rate how vividly you can imagine each of the following:",7,7,15833,7,None,English,,6,1562582191259,3.9356166666666668,yes,6,7,ratingScaleTask
429,<b>Smell</b> of: New leather,Mon Jul 08 2019 12:36:31 GMT+0200 (Mitteleuropäische Sommerzeit),72,7,perfectly clear,5,36,3,7,3,I don't understand the sentence.,1,olfaction,7,1562582427396,no image,None,,4,,,"Think of <b>smelling</b> each of the following, carefully considering the <b>olfactory image</b> that is produced. Rate how vividly you can imagine the following:",7,7,1764,7,None,English,,7,1562582191259,3.9356166666666668,yes,6,7,ratingScaleTask
429,<b>Sound</b> of: The clapping of hands in applause,Mon Jul 08 2019 12:36:31 GMT+0200 (Mitteleuropäische Sommerzeit),72,7,perfectly clear,5,16,3,7,3,I don't understand the sentence.,1,auditory,7,1562582427396,no image,None,,7,,,"Think of each of the following <b>sounds</b>, carefully considering the <b>auditory image</b>, that comes to your imagination. Rate how vividly you can imagine each of the following:",7,7,1729,7,None,English,,8,1562582191259,3.9356166666666668,yes,6,7,ratingScaleTask
429,"<b>Image</b> of his/her: Characteristic poses of head, body, etc.",Mon Jul 08 2019 12:36:31 GMT+0200 (Mitteleuropäische Sommerzeit),72,7,perfectly clear,5,8,3,7,3,I don't understand the sentence.,1,visual,7,1562582427396,no image,None,,5,,,"Think of some relative or friend whom you frequently <b>see</b>, carefully considering the <b>visual image</b> that comes to your imagination. Rate how vividly you can imagine each of the following:",7,7,3383,7,None,English,,9,1562582191259,3.9356166666666668,yes,6,7,ratingScaleTask
429,<b>Image</b> of: The different colors worn in their usual clothes,Mon Jul 08 2019 12:36:31 GMT+0200 (Mitteleuropäische Sommerzeit),72,7,perfectly clear,5,10,3,7,3,I don't understand the sentence.,1,visual,7,1562582427396,no image,None,,5,,,"Think of some relative or friend whom you frequently <b>see</b>, carefully considering the <b>visual image</b> that comes to your imagination. Rate how vividly you can imagine each of the following:",7,7,1742,7,None,English,,10,1562582191259,3.9356166666666668,yes,6,7,ratingScaleTask
429,<b>Smell</b> of: Fresh paint,Mon Jul 08 2019 12:36:31 GMT+0200 (Mitteleuropäische Sommerzeit),72,7,perfectly clear,5,35,3,7,3,I don't understand the sentence.,1,olfaction,7,1562582427396,no image,None,,5,,,"Think of <b>smelling</b> each of the following, carefully considering the <b>olfactory image</b> that is produced. Rate how vividly you can imagine the following:",7,7,1352,7,None,English,,11,1562582191259,3.9356166666666668,yes,6,7,ratingScaleTask
429,<b>Feeling</b> of: Hunger,Mon Jul 08 2019 12:36:31 GMT+0200 (Mitteleuropäische Sommerzeit),72,7,perfectly clear,5,38,3,7,3,I don't understand the sentence.,1,organic,7,1562582427396,no image,None,,6,,,"Think of each of the following <b>sensations</b>, carefully considering the image that comes to your mind. Rate how vividly you can imagine each of the following: ",7,7,8459,7,None,English,,12,1562582191259,3.9356166666666668,yes,6,7,ratingScaleTask
429,<b>Sound</b> of: The meowing of a cat,Mon Jul 08 2019 12:36:31 GMT+0200 (Mitteleuropäische Sommerzeit),72,7,perfectly clear,5,14,3,7,3,I don't understand the sentence.,1,auditory,7,1562582427396,no image,None,,6,,,"Think of each of the following <b>sounds</b>, carefully considering the <b>auditory image</b>, that comes to your imagination. Rate how vividly you can imagine each of the following:",7,7,1730,7,None,English,,13,1562582191259,3.9356166666666668,yes,6,7,ratingScaleTask
429,<b>Movement</b> of: Running upstairs,Mon Jul 08 2019 12:36:31 GMT+0200 (Mitteleuropäische Sommerzeit),72,7,perfectly clear,5,22,3,7,3,I don't understand the sentence.,1,motor,7,1562582427396,no image,None,,6,,,"Think of <b>performing</b> each of the following <b>acts</b>, carefully considering the image that forms in your mind of your <b>arms, legs, lips, etc.</b> performing this act. Rate how vividly you can imagine the following:",7,7,6768,7,None,English,,14,1562582191259,3.9356166666666668,yes,6,7,ratingScaleTask
429,<b>Image</b> of: The sun as it is sinking below the horizon,Mon Jul 08 2019 12:36:31 GMT+0200 (Mitteleuropäische Sommerzeit),72,7,perfectly clear,5,11,3,7,3,I don't understand the sentence.,1,visual,7,1562582427396,no image,None,,6,,,"Think of the following <b>image</b>, carefully considering the <b>visual image</b> that comes to your imagination. Rate how vividly you can imagine the following:",7,7,10919,7,None,English,,15,1562582191259,3.9356166666666668,yes,6,7,ratingScaleTask
429,<b>Taste</b> of: Oranges,Mon Jul 08 2019 12:36:31 GMT+0200 (Mitteleuropäische Sommerzeit),72,7,perfectly clear,5,29,3,7,3,I don't understand the sentence.,1,taste,7,1562582427396,no image,None,,6,,,"Think of <b>tasting</b> each of the following, carefully considering the <b>gustatory image</b> that is produced. Rate how vividly you can imagine the following:",7,7,1132,7,None,English,,16,1562582191259,3.9356166666666668,yes,6,7,ratingScaleTask
429,<b>Taste</b> of: Jelly,Mon Jul 08 2019 12:36:31 GMT+0200 (Mitteleuropäische Sommerzeit),72,7,perfectly clear,5,30,3,7,3,I don't understand the sentence.,1,taste,7,1562582427396,no image,None,,6,,,"Think of <b>tasting</b> each of the following, carefully considering the <b>gustatory image</b> that is produced. Rate how vividly you can imagine the following:",7,7,805,7,None,English,,17,1562582191259,3.9356166666666668,yes,6,7,ratingScaleTask
429,<b>Feeling</b> of: Fur,Mon Jul 08 2019 12:36:31 GMT+0200 (Mitteleuropäische Sommerzeit),72,7,perfectly clear,5,19,3,7,3,I don't understand the sentence.,1,tactile,7,1562582427396,no image,None,,6,,,"Think of the <b>'feeling' or touching</b> each of the following, carefully considering the <b>tactile image</b> that comes into your mind. Rate how vividly you can imagine the following:",7,7,728,7,None,English,,18,1562582191259,3.9356166666666668,yes,6,7,ratingScaleTask
429,<b>Feeling</b> of: Drowsiness,Mon Jul 08 2019 12:36:31 GMT+0200 (Mitteleuropäische Sommerzeit),72,7,perfectly clear,5,40,3,7,3,I don't understand the sentence.,1,organic,7,1562582427396,no image,None,,6,,,"Think of each of the following <b>sensations</b>, carefully considering the image that comes to your mind. Rate how vividly you can imagine each of the following: ",7,7,1689,7,None,English,,19,1562582191259,3.9356166666666668,yes,6,7,ratingScaleTask
429,<b>Feeling</b> of: Feeling sick after eating a lot,Mon Jul 08 2019 12:36:31 GMT+0200 (Mitteleuropäische Sommerzeit),72,7,perfectly clear,5,41,3,7,3,I don't understand the sentence.,1,organic,7,1562582427396,no image,None,,6,,,"Think of each of the following <b>sensations</b>, carefully considering the image that comes to your mind. Rate how vividly you can imagine each of the following: ",7,7,963,7,None,English,,20,1562582191259,3.9356166666666668,yes,6,7,ratingScaleTask
429,<b>Feeling</b> of: A sore throat,Mon Jul 08 2019 12:36:31 GMT+0200 (Mitteleuropäische Sommerzeit),72,7,perfectly clear,5,39,3,7,3,I don't understand the sentence.,1,organic,7,1562582427396,no image,None,,6,,,"Think of each of the following <b>sensations</b>, carefully considering the image that comes to your mind. Rate how vividly you can imagine each of the following: ",7,7,690,7,None,English,,21,1562582191259,3.9356166666666668,yes,6,7,ratingScaleTask
429,<b>Smell</b> of: Cooking cabbage,Mon Jul 08 2019 12:36:31 GMT+0200 (Mitteleuropäische Sommerzeit),72,7,perfectly clear,5,33,3,7,3,I don't understand the sentence.,1,olfaction,7,1562582427396,no image,None,,6,,,"Think of <b>smelling</b> each of the following, carefully considering the <b>olfactory image</b> that is produced. Rate how vividly you can imagine the following:",7,7,673,7,None,English,,22,1562582191259,3.9356166666666668,yes,6,7,ratingScaleTask
429,<b>Sound</b> of: The horn of an automobile,Mon Jul 08 2019 12:36:31 GMT+0200 (Mitteleuropäische Sommerzeit),72,7,perfectly clear,5,13,3,7,3,I don't understand the sentence.,1,auditory,7,1562582427396,no image,None,,6,,,"Think of each of the following <b>sounds</b>, carefully considering the <b>auditory image</b>, that comes to your imagination. Rate how vividly you can imagine each of the following:",7,7,783,7,None,English,,23,1562582191259,3.9356166666666668,yes,6,7,ratingScaleTask
429,<b>Taste</b> of: Your favorite soup,Mon Jul 08 2019 12:36:31 GMT+0200 (Mitteleuropäische Sommerzeit),72,7,perfectly clear,5,31,3,7,3,I don't understand the sentence.,1,taste,7,1562582427396,no image,None,,6,,,"Think of <b>tasting</b> each of the following, carefully considering the <b>gustatory image</b> that is produced. Rate how vividly you can imagine the following:",7,7,1287,7,None,English,,24,1562582191259,3.9356166666666668,yes,6,7,ratingScaleTask
429,<b>Smell</b> of: A badly ventilated room,Mon Jul 08 2019 12:36:31 GMT+0200 (Mitteleuropäische Sommerzeit),72,7,perfectly clear,5,32,3,7,3,I don't understand the sentence.,1,olfaction,7,1562582427396,no image,None,,6,,,"Think of <b>smelling</b> each of the following, carefully considering the <b>olfactory image</b> that is produced. Rate how vividly you can imagine the following:",7,7,840,7,None,English,,25,1562582191259,3.9356166666666668,yes,6,7,ratingScaleTask
429,<b>Movement</b> of: Kicking something out of your way,Mon Jul 08 2019 12:36:31 GMT+0200 (Mitteleuropäische Sommerzeit),72,7,perfectly clear,5,26,3,7,3,I don't understand the sentence.,1,motor,7,1562582427396,no image,None,,6,,,"Think of <b>performing</b> each of the following <b>acts</b>, carefully considering the image that forms in your mind of your <b>arms, legs, lips, etc.</b> performing this act. Rate how vividly you can imagine the following:",7,7,2704,7,None,English,,26,1562582191259,3.9356166666666668,yes,6,7,ratingScaleTask
429,<b>Feeling</b> of: Sand,Mon Jul 08 2019 12:36:31 GMT+0200 (Mitteleuropäische Sommerzeit),72,7,perfectly clear,5,17,3,7,3,I don't understand the sentence.,1,tactile,7,1562582427396,no image,None,,6,,,"Think of the <b>'feeling' or touching</b> each of the following, carefully considering the <b>tactile image</b> that comes into your mind. Rate how vividly you can imagine the following:",7,7,1556,7,None,English,,27,1562582191259,3.9356166666666668,yes,6,7,ratingScaleTask
429,<b>Feeling</b> of: The prick of a pin,Mon Jul 08 2019 12:36:31 GMT+0200 (Mitteleuropäische Sommerzeit),72,7,perfectly clear,5,20,3,7,3,I don't understand the sentence.,1,tactile,7,1562582427396,no image,None,,6,,,"Think of the <b>'feeling' or touching</b> each of the following, carefully considering the <b>tactile image</b> that comes into your mind. Rate how vividly you can imagine the following:",7,7,1675,7,None,English,,28,1562582191259,3.9356166666666668,yes,6,7,ratingScaleTask
429,<b>Sound</b> of: The whistle of a locomotiv,Mon Jul 08 2019 12:36:31 GMT+0200 (Mitteleuropäische Sommerzeit),72,7,perfectly clear,5,12,3,7,3,I don't understand the sentence.,1,auditory,7,1562582427396,no image,None,,5,,,"Think of each of the following <b>sounds</b>, carefully considering the <b>auditory image</b>, that comes to your imagination. Rate how vividly you can imagine each of the following:",7,7,3810,7,None,English,,29,1562582191259,3.9356166666666668,yes,6,7,ratingScaleTask
429,<b>Sound</b> of: Escaping steam,Mon Jul 08 2019 12:36:31 GMT+0200 (Mitteleuropäische Sommerzeit),72,7,perfectly clear,5,15,3,7,3,I don't understand the sentence.,1,auditory,7,1562582427396,no image,None,,5,,,"Think of each of the following <b>sounds</b>, carefully considering the <b>auditory image</b>, that comes to your imagination. Rate how vividly you can imagine each of the following:",7,7,3001,7,None,English,,30,1562582191259,3.9356166666666668,yes,6,7,ratingScaleTask
429,<b>Movement</b> of: Jumping across a stream,Mon Jul 08 2019 12:36:31 GMT+0200 (Mitteleuropäische Sommerzeit),72,7,perfectly clear,5,23,3,7,3,I don't understand the sentence.,1,motor,7,1562582427396,no image,None,,5,,,"Think of <b>performing</b> each of the following <b>acts</b>, carefully considering the image that forms in your mind of your <b>arms, legs, lips, etc.</b> performing this act. Rate how vividly you can imagine the following:",7,7,1519,7,None,English,,31,1562582191259,3.9356166666666668,yes,6,7,ratingScaleTask
429,<b>Feeling</b> of: Fatigue,Mon Jul 08 2019 12:36:31 GMT+0200 (Mitteleuropäische Sommerzeit),72,7,perfectly clear,5,37,3,7,3,I don't understand the sentence.,1,organic,7,1562582427396,no image,None,,4,,,"Think of each of the following <b>sensations</b>, carefully considering the image that comes to your mind. Rate how vividly you can imagine each of the following: ",7,7,1580,7,None,English,,32,1562582191259,3.9356166666666668,yes,6,7,ratingScaleTask
429,<b>Movement</b> of: Drawing a circle on paper,Mon Jul 08 2019 12:36:31 GMT+0200 (Mitteleuropäische Sommerzeit),72,7,perfectly clear,5,24,3,7,3,I don't understand the sentence.,1,motor,7,1562582427396,no image,None,,7,,,"Think of <b>performing</b> each of the following <b>acts</b>, carefully considering the image that forms in your mind of your <b>arms, legs, lips, etc.</b> performing this act. Rate how vividly you can imagine the following:",7,7,2332,7,None,English,,33,1562582191259,3.9356166666666668,yes,6,7,ratingScaleTask
429,"<b>Image</b> of his/her: The precise gait, length of step, etc.in walking",Mon Jul 08 2019 12:36:31 GMT+0200 (Mitteleuropäische Sommerzeit),72,7,perfectly clear,5,9,3,7,3,I don't understand the sentence.,1,visual,7,1562582427396,no image,None,,3,,,"Think of some relative or friend whom you frequently <b>see</b>, carefully considering the <b>visual image</b> that comes to your imagination. Rate how vividly you can imagine each of the following:",7,7,2516,7,None,English,,34,1562582191259,3.9356166666666668,yes,6,7,ratingScaleTask
429,<b>Taste</b> of: Granulated (white) sugar,Mon Jul 08 2019 12:36:31 GMT+0200 (Mitteleuropäische Sommerzeit),72,7,perfectly clear,5,28,3,7,3,I don't understand the sentence.,1,taste,7,1562582427396,no image,None,,3,,,"Think of <b>tasting</b> each of the following, carefully considering the <b>gustatory image</b> that is produced. Rate how vividly you can imagine the following:",7,7,1950,7,None,English,,35,1562582191259,3.9356166666666668,yes,6,7,ratingScaleTask
428,<b>Taste of</b>: Strawberrys,Mon Jul 08 2019 11:57:38 GMT+0200 (CEST),72,6,perfectly clear,7,4,4,7,5,I don't understand the sentence.,5,gustatory,6,1562580236977,no image,English,23,5,,Graduated High School (Abitur),"Think of <b>tasting</b> the following, carefully considering the <b>gustatory image</b> that is produced. Rate how vividly you can imagine this:",7,6,5065,5,German,English,female,1,1562579858364,6.310216666666666,no,5,5,ratingScaleTrial_eng
428,<b>'feeling'</b> of: The The tickle of a fly on your skin,Mon Jul 08 2019 11:57:38 GMT+0200 (CEST),72,6,perfectly clear,7,2,4,7,5,I don't understand the sentence.,5,tactile,6,1562580236977,no image,English,23,2,,Graduated High School (Abitur),"Think of the following <b>'feeling'</b> or <b>touching the following</b>, carefully considering the <b>tactile image</b> that comes to your imagination. Rate how vividly you can imagine this:",7,6,5216,5,German,English,female,2,1562579858364,6.310216666666666,no,5,5,ratingScaleTrial_eng
428,<b>image</b> of: A ball bouncing up and down,Mon Jul 08 2019 11:57:38 GMT+0200 (CEST),72,6,perfectly clear,7,0,4,7,5,I don't understand the sentence.,5,visual,6,1562580236977,no image,English,23,7,,Graduated High School (Abitur),"Think of the following <b>image</b>, carefully considering the <b>visual image</b> that comes to your imagination. Rate how vividly you can imagine this:",7,6,5373,5,German,English,female,3,1562579858364,6.310216666666666,no,5,5,ratingScaleTrial_eng
428,<b>smell</b> of: fresh brewed coffee,Mon Jul 08 2019 11:57:38 GMT+0200 (CEST),72,6,perfectly clear,7,5,4,7,5,I don't understand the sentence.,5,olfactory,6,1562580236977,no image,English,23,6,,Graduated High School (Abitur),"Think of <b>smelling</b> the following, carefully considering the <b>olfactory image</b> that is produced. Rate how vividly you can imagine this:",7,6,5160,5,German,English,female,4,1562579858364,6.310216666666666,no,5,5,ratingScaleTrial_eng
428,<b>Sensation of</b>: The feeling you had when hearing the school bell ringing,Mon Jul 08 2019 11:57:38 GMT+0200 (CEST),72,6,perfectly clear,7,6,4,7,5,I don't understand the sentence.,5,organic,6,1562580236977,no image,English,23,1,,Graduated High School (Abitur),"Think of the following <b>sensation</b>, carefully considering the <b>image that comes to your imagination</b>. Rate how vividly you can imagine this:",7,6,5227,5,German,English,female,5,1562579858364,6.310216666666666,no,5,5,ratingScaleTrial_eng
428,<b>sound</b> of: Rain falling on the street,Mon Jul 08 2019 11:57:38 GMT+0200 (CEST),72,6,perfectly clear,7,1,4,7,5,I don't understand the sentence.,5,auditory,6,1562580236977,no image,English,23,4,,Graduated High School (Abitur),"Think of the following <b>sound</b>, carefully considering the <b>auditory</b> image that comes to your imagination. Rate how vividly you can imagine this:",7,6,2898,5,German,English,female,6,1562579858364,6.310216666666666,no,5,5,ratingScaleTrial_eng
428,<b>Movement</b>: Sitting down on a chair,Mon Jul 08 2019 11:57:38 GMT+0200 (CEST),72,6,perfectly clear,7,3,4,7,5,I don't understand the sentence.,5,motor,6,1562580236977,no image,English,23,4,,Graduated High School (Abitur),"Think of <b>performing the following act</b>, carefully considering the image that <b>forms in your mind of your body part(s) moving</b>. Rate how vividly you can imagine this:",7,6,4206,5,German,English,female,7,1562579858364,6.310216666666666,no,5,5,ratingScaleTrial_eng
428,<b>Smell</b> of: Cooking cabbage,Mon Jul 08 2019 11:57:38 GMT+0200 (CEST),72,6,perfectly clear,7,33,4,7,5,I don't understand the sentence.,5,olfaction,6,1562580236977,no image,English,23,1,,Graduated High School (Abitur),"Think of <b>smelling</b> each of the following, carefully considering the <b>olfactory image</b> that is produced. Rate how vividly you can imagine the following:",7,6,3846,5,German,English,female,1,1562579858364,6.310216666666666,no,5,5,ratingScaleTask
428,<b>Sound</b> of: The whistle of a locomotiv,Mon Jul 08 2019 11:57:38 GMT+0200 (CEST),72,6,perfectly clear,7,12,4,7,5,I don't understand the sentence.,5,auditory,6,1562580236977,no image,English,23,3,,Graduated High School (Abitur),"Think of each of the following <b>sounds</b>, carefully considering the <b>auditory image</b>, that comes to your imagination. Rate how vividly you can imagine each of the following:",7,6,8306,5,German,English,female,2,1562579858364,6.310216666666666,no,5,5,ratingScaleTask
428,"<b>Image</b> of his/her: Exact contour of face, head, shoulders and body",Mon Jul 08 2019 11:57:38 GMT+0200 (CEST),72,6,perfectly clear,7,7,4,7,5,I don't understand the sentence.,5,visual,6,1562580236977,no image,English,23,7,,Graduated High School (Abitur),"Think of some relative or friend whom you frequently <b>see<b/>, carefully considering the <b>visual image<b/> that comes to your imagination. Rate how vividly you can imagine each of the following:",7,6,5104,5,German,English,female,3,1562579858364,6.310216666666666,no,5,5,ratingScaleTask
428,<b>Taste</b> of: Oranges,Mon Jul 08 2019 11:57:38 GMT+0200 (CEST),72,6,perfectly clear,7,29,4,7,5,I don't understand the sentence.,5,taste,6,1562580236977,no image,English,23,6,,Graduated High School (Abitur),"Think of <b>tasting</b> each of the following, carefully considering the <b>gustatory image</b> that is produced. Rate how vividly you can imagine the following:",7,6,2222,5,German,English,female,4,1562579858364,6.310216666666666,no,5,5,ratingScaleTask
428,<b>Feeling</b> of: Feeling sick after eating a lot,Mon Jul 08 2019 11:57:38 GMT+0200 (CEST),72,6,perfectly clear,7,41,4,7,5,I don't understand the sentence.,5,organic,6,1562580236977,no image,English,23,5,,Graduated High School (Abitur),"Think of each of the following <b>sensations</b>, carefully considering the image that comes to your mind. Rate how vividly you can imagine each of the following: ",7,6,3647,5,German,English,female,5,1562579858364,6.310216666666666,no,5,5,ratingScaleTask
428,<b>Sound</b> of: Escaping steam,Mon Jul 08 2019 11:57:38 GMT+0200 (CEST),72,6,perfectly clear,7,15,4,7,5,I don't understand the sentence.,5,auditory,6,1562580236977,no image,English,23,1,,Graduated High School (Abitur),"Think of each of the following <b>sounds</b>, carefully considering the <b>auditory image</b>, that comes to your imagination. Rate how vividly you can imagine each of the following:",7,6,6213,5,German,English,female,6,1562579858364,6.310216666666666,no,5,5,ratingScaleTask
428,<b>Feeling</b> of: Fatigue,Mon Jul 08 2019 11:57:38 GMT+0200 (CEST),72,6,perfectly clear,7,37,4,7,5,I don't understand the sentence.,5,organic,6,1562580236977,no image,English,23,6,,Graduated High School (Abitur),"Think of each of the following <b>sensations</b>, carefully considering the image that comes to your mind. Rate how vividly you can imagine each of the following: ",7,6,5604,5,German,English,female,7,1562579858364,6.310216666666666,no,5,5,ratingScaleTask
428,<b>Image</b> of: The sun as it is sinking below the horizon,Mon Jul 08 2019 11:57:38 GMT+0200 (CEST),72,6,perfectly clear,7,11,4,7,5,I don't understand the sentence.,5,visual,6,1562580236977,no image,English,23,7,,Graduated High School (Abitur),"Think of the following <b>image</b>, carefully considering the <b>visual image</b> that comes to your imagination. Rate how vividly you can imagine the following:",7,6,5419,5,German,English,female,8,1562579858364,6.310216666666666,no,5,5,ratingScaleTask
428,<b>Sound</b> of: The meowing of a cat,Mon Jul 08 2019 11:57:38 GMT+0200 (CEST),72,6,perfectly clear,7,14,4,7,5,I don't understand the sentence.,5,auditory,6,1562580236977,no image,English,23,4,,Graduated High School (Abitur),"Think of each of the following <b>sounds</b>, carefully considering the <b>auditory image</b>, that comes to your imagination. Rate how vividly you can imagine each of the following:",7,6,5352,5,German,English,female,9,1562579858364,6.310216666666666,no,5,5,ratingScaleTask
428,<b>Sound</b> of: The horn of an automobile,Mon Jul 08 2019 11:57:38 GMT+0200 (CEST),72,6,perfectly clear,7,13,4,7,5,I don't understand the sentence.,5,auditory,6,1562580236977,no image,English,23,5,,Graduated High School (Abitur),"Think of each of the following <b>sounds</b>, carefully considering the <b>auditory image</b>, that comes to your imagination. Rate how vividly you can imagine each of the following:",7,6,3498,5,German,English,female,10,1562579858364,6.310216666666666,no,5,5,ratingScaleTask
428,<b>Movement</b> of: Jumping across a stream,Mon Jul 08 2019 11:57:38 GMT+0200 (CEST),72,6,perfectly clear,7,23,4,7,5,I don't understand the sentence.,5,motor,6,1562580236977,no image,English,23,5,,Graduated High School (Abitur),"Think of <b>performing</b> each of the following <b>acts</b>, carefully considering the image that forms in your mind of your <b>arms, legs, lips, etc.</b> performing this act. Rate how vividly you can imagine the following:",7,6,7573,5,German,English,female,11,1562579858364,6.310216666666666,no,5,5,ratingScaleTask
428,<b>Movement</b> of: Reaching up to a high shelf,Mon Jul 08 2019 11:57:38 GMT+0200 (CEST),72,6,perfectly clear,7,25,4,7,5,I don't understand the sentence.,5,motor,6,1562580236977,no image,English,23,2,,Graduated High School (Abitur),"Think of <b>performing</b> each of the following <b>acts</b>, carefully considering the image that forms in your mind of your <b>arms, legs, lips, etc.</b> performing this act. Rate how vividly you can imagine the following:",7,6,4174,5,German,English,female,12,1562579858364,6.310216666666666,no,5,5,ratingScaleTask
428,<b>Feeling</b> of: The warmth of a tepid bath,Mon Jul 08 2019 11:57:38 GMT+0200 (CEST),72,6,perfectly clear,7,21,4,7,5,I don't understand the sentence.,5,tactile,6,1562580236977,no image,English,23,1,,Graduated High School (Abitur),"Think of the <b>'feeling' or touching</b> each of the following, carefully considering the <b>tactile image</b> that comes into your mind. Rate how vividly you can imagine the following:",7,6,3701,5,German,English,female,13,1562579858364,6.310216666666666,no,5,5,ratingScaleTask
